Tiempo(s),Latitud,Longitud,Presión(Pa),Temperatura(°C),Humedad(%),Altitud_BMP280(m),Altitud_Relativa(m),Altitud_GPS(m),AccX(g),AccY(g),AccZ(g),GyroX(°/s),GyroY(°/s),GyroZ(°/s),MagX(μT),MagY(μT),MagZ(μT)
0.00,0.000000,0.000000,75189.55,35.19,0.00,43.03,43.03,0.00,0.07,0.14,0.90,-5.79,-7.54,-3.91,764.00,24320.00,29786.00
2.02,0.000000,0.000000,75189.86,35.18,0.00,42.99,42.99,0.00,-0.05,0.23,0.92,-5.09,-42.86,-76.38,764.00,24320.00,29786.00
4.00,0.000000,0.000000,75190.71,35.19,0.00,42.90,42.90,0.00,0.08,0.13,0.83,-32.69,28.56,-45.81,764.00,24320.00,29786.00
6.02,0.000000,0.000000,75192.69,35.20,0.00,42.69,42.69,0.00,-0.12,0.08,0.67,-10.13,13.15,-46.64,764.00,24320.00,29786.00
8.02,0.000000,0.000000,75193.94,35.21,0.00,42.56,42.56,0.00,0.10,-0.06,1.19,16.05,-16.85,-46.90,764.00,24320.00,29786.00
10.00,0.000000,0.000000,75194.52,35.22,0.00,42.50,42.50,0.00,0.13,0.23,0.91,-9.92,16.83,71.45,764.00,24320.00,29786.00
12.00,0.000000,0.000000,75194.92,35.22,0.00,42.46,42.46,0.00,0.07,0.20,0.90,-5.64,11.12,-16.82,764.00,24320.00,29786.00
15.99,0.000000,0.000000,75195.91,35.24,0.00,42.35,42.35,0.00,0.06,0.25,0.91,-5.33,-2.37,2.51,764.00,24320.00,29786.00
20.01,0.000000,0.000000,75197.98,35.25,0.00,42.13,42.13,0.00,0.14,0.06,1.16,-13.47,-0.81,-25.28,764.00,24320.00,29786.00
22.00,0.000000,0.000000,75198.87,35.26,0.00,42.04,42.04,0.00,0.07,-0.04,0.72,6.92,12.57,-12.68,764.00,24320.00,29786.00
24.00,0.000000,0.000000,75199.37,35.26,0.00,41.99,41.99,0.00,0.13,0.22,0.94,-3.75,-13.18,-2.57,764.00,24320.00,29786.00
26.01,0.000000,0.000000,75199.36,35.26,0.00,41.99,41.99,0.00,0.06,0.11,0.99,22.52,5.84,-45.93,764.00,24320.00,29786.00
28.00,0.000000,0.000000,75199.80,35.27,0.00,41.94,41.94,0.00,-0.07,0.10,0.94,4.39,-9.58,-5.26,764.00,24320.00,29786.00
30.00,0.000000,0.000000,75199.14,35.27,0.00,42.01,42.01,0.00,-0.00,0.13,0.94,2.61,-16.64,9.37,764.00,24320.00,29786.00
32.01,0.000000,0.000000,75198.84,35.27,0.00,42.04,42.04,0.00,-0.03,0.10,0.94,-5.47,-9.81,-2.38,764.00,24320.00,29786.00
34.01,0.000000,0.000000,75198.27,35.28,0.00,42.10,42.10,0.00,-0.04,0.09,0.92,0.40,-5.84,2.69,764.00,24320.00,29786.00
36.00,0.000000,0.000000,75197.66,35.28,0.00,42.17,42.17,0.00,0.02,0.11,0.96,-0.50,-2.98,0.29,764.00,24320.00,29786.00
38.00,0.000000,0.000000,75196.34,35.28,0.00,42.31,42.31,0.00,0.01,0.10,0.96,-0.44,-3.04,0.60,764.00,24320.00,29786.00
40.01,0.000000,0.000000,75196.70,35.29,0.00,42.27,42.27,0.00,0.00,0.10,0.91,-1.11,-2.94,0.37,764.00,24320.00,29786.00
42.00,0.000000,0.000000,75196.62,35.31,0.00,42.28,42.28,0.00,-0.00,0.11,0.96,-0.47,-3.14,0.36,764.00,24320.00,29786.00
44.01,0.000000,0.000000,75196.14,35.31,0.00,42.33,42.33,0.00,0.01,0.11,0.96,-0.47,-2.62,0.32,764.00,24320.00,29786.00
46.00,0.000000,0.000000,75196.15,35.31,0.00,42.33,42.33,0.00,0.01,0.11,0.96,-0.83,-3.14,0.29,764.00,24320.00,29786.00
48.01,0.000000,0.000000,75196.70,35.31,0.00,42.27,42.27,0.00,0.00,0.11,0.96,-0.60,-2.77,0.12,764.00,24320.00,29786.00
50.01,0.000000,0.000000,75196.30,35.31,0.00,42.31,42.31,0.00,0.00,0.10,0.94,-0.74,-3.78,0.61,764.00,24320.00,29786.00
52.01,0.000000,0.000000,75196.74,35.32,0.00,42.26,42.26,0.00,0.03,0.13,0.90,5.39,-0.68,-3.87,764.00,24320.00,29786.00
54.00,0.000000,0.000000,75197.14,35.31,0.00,42.22,42.22,0.00,0.04,0.12,0.98,-0.66,-3.01,0.38,764.00,24320.00,29786.00
56.01,0.000000,0.000000,75196.85,35.32,0.00,42.25,42.25,0.00,0.01,0.11,0.95,-1.44,-2.40,0.24,764.00,24320.00,29786.00
58.01,0.000000,0.000000,75196.89,35.31,0.00,42.25,42.25,0.00,-0.00,0.11,0.95,-0.56,-2.80,0.10,764.00,24320.00,29786.00
60.01,0.000000,0.000000,75196.95,35.31,0.00,42.24,42.24,0.00,0.06,0.08,0.96,-9.58,-12.57,-4.75,764.00,24320.00,29786.00
62.01,0.000000,0.000000,75196.89,35.31,0.00,42.25,42.25,0.00,-0.03,0.08,0.95,0.45,-3.08,0.56,764.00,24320.00,29786.00
64.01,0.000000,0.000000,75196.61,35.31,0.00,42.28,42.28,0.00,0.02,0.10,0.96,-0.52,-2.78,0.37,764.00,24320.00,29786.00
66.00,0.000000,0.000000,75196.09,35.31,0.00,42.33,42.33,0.00,-0.00,0.10,0.95,-0.41,-2.72,0.15,764.00,24320.00,29786.00
70.02,0.000000,0.000000,75199.21,35.31,0.00,42.00,42.00,0.00,0.45,0.95,0.18,18.03,-27.17,-117.57,764.00,24320.00,29786.00
72.01,0.000000,0.000000,75200.48,35.32,0.00,41.87,41.87,0.00,-0.07,0.14,0.96,6.68,-20.36,-17.33,764.00,24320.00,29786.00
74.00,0.000000,0.000000,75201.78,35.31,0.00,41.73,41.73,0.00,0.02,0.10,0.96,-0.63,-2.99,0.37,764.00,24320.00,29786.00
76.01,0.000000,0.000000,75202.20,35.32,0.00,41.68,41.68,0.00,0.01,0.11,0.96,-0.41,-2.57,0.25,764.00,24320.00,29786.00
78.00,0.000000,0.000000,75199.44,35.32,0.00,41.98,41.98,0.00,0.01,0.04,0.93,2.18,-11.25,-48.14,764.00,24320.00,29786.00
80.03,0.000000,0.000000,75196.99,35.32,0.00,42.24,42.24,0.00,-0.73,-0.35,0.53,-3.04,-1.74,-69.27,764.00,24320.00,29786.00
82.03,0.000000,0.000000,75195.48,35.32,0.00,42.40,42.40,0.00,-0.30,-0.64,0.65,18.08,-17.14,-9.75,764.00,24320.00,29786.00
84.01,0.000000,0.000000,75194.16,35.32,0.00,42.54,42.54,0.00,-0.18,0.05,0.78,74.35,-49.77,28.06,764.00,24320.00,29786.00
86.01,0.000000,0.000000,75193.22,35.32,0.00,42.64,42.64,0.00,0.03,0.00,0.98,41.73,-19.72,-57.60,764.00,24320.00,29786.00
88.01,0.000000,0.000000,75195.59,35.33,0.00,42.39,42.39,0.00,-0.07,0.21,1.00,50.44,21.45,0.20,764.00,24320.00,29786.00
90.00,0.000000,0.000000,75195.48,35.34,0.00,42.40,42.40,0.00,-0.77,-0.15,0.57,-8.47,16.34,10.70,764.00,24320.00,29786.00
96.00,0.000000,0.000000,75197.87,35.33,0.00,42.14,42.14,0.00,0.57,-0.39,0.71,3.57,-4.11,16.20,764.00,24320.00,29786.00
98.01,0.000000,0.000000,75197.20,35.34,0.00,42.21,42.21,0.00,0.15,-0.67,0.71,54.42,26.76,28.88,764.00,24320.00,29786.00
100.01,0.000000,0.000000,75198.35,35.34,0.00,42.09,42.09,0.00,0.77,0.33,0.64,30.25,1.76,-18.84,764.00,24320.00,29786.00
102.03,0.000000,0.000000,75198.55,35.35,0.00,42.07,42.07,0.00,0.58,-0.30,0.81,-32.82,-21.63,-0.24,764.00,24320.00,29786.00
104.01,0.000000,0.000000,75198.00,35.35,0.00,42.13,42.13,0.00,1.01,0.35,0.63,65.80,-79.14,-96.60,764.00,24320.00,29786.00
105.98,0.000000,0.000000,75198.98,35.36,0.00,42.03,42.03,0.00,0.55,0.82,0.04,5.71,4.55,81.35,764.00,24320.00,29786.00
108.02,0.000000,0.000000,75198.03,35.36,0.00,42.13,42.13,0.00,0.23,-0.90,0.20,-20.04,-20.53,53.12,764.00,24320.00,29786.00
110.01,0.000000,0.000000,75197.72,35.37,0.00,42.16,42.16,0.00,0.90,-0.30,0.24,-2.65,0.41,-18.25,764.00,24320.00,29786.00
112.00,0.000000,0.000000,75198.23,35.37,0.00,42.11,42.11,0.00,0.75,0.69,0.25,-2.23,-1.59,-12.13,764.00,24320.00,29786.00
114.01,0.000000,0.000000,75199.61,35.38,0.00,41.96,41.96,0.00,0.71,0.47,0.30,9.77,17.49,18.28,764.00,24320.00,29786.00
115.99,0.000000,0.000000,75198.69,35.38,0.00,42.06,42.06,0.00,0.82,0.49,0.28,-1.75,-3.98,-0.92,764.00,24320.00,29786.00
118.01,0.000000,0.000000,75199.52,35.39,0.00,41.97,41.97,0.00,0.79,0.55,0.21,-2.61,-0.17,1.14,764.00,24320.00,29786.00
120.01,0.000000,0.000000,75200.33,35.40,0.00,41.88,41.88,0.00,0.71,0.48,0.23,-14.25,-15.31,14.19,764.00,24320.00,29786.00
124.01,0.000000,0.000000,75200.78,35.41,0.00,41.83,41.83,0.00,0.76,0.93,0.32,33.13,-11.76,38.15,764.00,24320.00,29786.00
125.98,0.000000,0.000000,75200.20,35.42,0.00,41.90,41.90,0.00,0.68,0.67,0.20,6.46,0.56,-2.78,764.00,24320.00,29786.00
127.98,0.000000,0.000000,75200.16,35.43,0.00,41.90,41.90,0.00,0.66,0.76,0.24,1.92,2.16,-8.84,764.00,24320.00,29786.00
132.00,0.000000,0.000000,75198.58,35.45,0.00,42.07,42.07,0.00,0.72,0.68,0.21,-0.53,-2.94,-0.29,764.00,24320.00,29786.00
135.98,0.000000,0.000000,75196.90,35.47,0.00,42.25,42.25,0.00,0.60,0.66,0.03,6.34,-6.88,2.35,764.00,24320.00,29786.00
138.00,0.000000,0.000000,75196.62,35.48,0.00,42.28,42.28,0.00,0.68,0.68,0.25,-4.10,-5.00,1.91,764.00,24320.00,29786.00
140.00,0.000000,0.000000,75195.36,35.50,0.00,42.41,42.41,0.00,0.61,0.66,0.35,-12.43,-3.71,3.22,764.00,24320.00,29786.00
142.00,0.000000,0.000000,75194.92,35.51,0.00,42.46,42.46,0.00,0.66,0.64,0.27,-2.59,-1.72,0.51,764.00,24320.00,29786.00
143.98,0.000000,0.000000,75195.39,35.53,0.00,42.41,42.41,0.00,0.67,0.68,0.30,0.27,-2.56,0.18,764.00,24320.00,29786.00
146.00,0.000000,0.000000,75195.22,35.54,0.00,42.42,42.42,0.00,0.67,0.69,0.31,-2.66,-2.92,0.72,764.00,24320.00,29786.00
148.00,0.000000,0.000000,75195.07,35.55,0.00,42.44,42.44,0.00,0.66,0.68,0.28,-1.30,-3.52,0.11,764.00,24320.00,29786.00
151.98,0.000000,0.000000,75196.14,35.58,0.00,42.33,42.33,0.00,0.67,0.67,0.29,0.04,-2.43,0.19,764.00,24320.00,29786.00
156.00,0.000000,0.000000,75196.09,35.61,0.00,42.33,42.33,0.00,0.69,0.62,0.35,0.76,-2.42,-0.96,764.00,24320.00,29786.00
158.01,0.000000,0.000000,75195.62,35.62,0.00,42.38,42.38,0.00,0.69,0.65,0.32,-0.80,-5.10,0.22,764.00,24320.00,29786.00
160.00,0.000000,0.000000,75196.00,35.63,0.00,42.34,42.34,0.00,0.68,0.64,0.33,-0.87,-2.33,0.63,764.00,24320.00,29786.00
162.00,0.000000,0.000000,75195.56,35.65,0.00,42.39,42.39,0.00,0.72,0.66,0.33,6.00,-1.50,-25.74,764.00,24320.00,29786.00
164.00,0.000000,0.000000,75196.26,35.66,0.00,42.31,42.31,0.00,0.89,0.39,0.24,-1.21,22.17,57.53,764.00,24320.00,29786.00
166.00,0.000000,0.000000,75195.42,35.67,0.00,42.40,42.40,0.00,0.93,-0.04,0.34,0.68,-3.03,-0.67,764.00,24320.00,29786.00
170.00,0.000000,0.000000,75194.15,35.69,0.00,42.54,42.54,0.00,0.62,0.67,0.37,4.55,5.84,-30.47,764.00,24320.00,29786.00
172.02,0.000000,0.000000,75195.45,35.70,0.00,42.40,42.40,0.00,0.86,0.49,-0.40,-6.59,-60.34,-34.19,764.00,24320.00,29786.00
174.02,0.000000,0.000000,75195.38,35.71,0.00,42.41,42.41,0.00,0.64,0.69,-0.27,-83.06,105.29,-53.80,764.00,24320.00,29786.00
176.00,0.000000,0.000000,75196.38,35.72,0.00,42.30,42.30,0.00,-0.58,0.70,0.34,-3.46,1.21,21.58,764.00,24320.00,29786.00
178.00,0.000000,0.000000,75197.65,35.74,0.00,42.17,42.17,0.00,-0.88,0.02,0.49,-4.59,2.67,12.06,764.00,24320.00,29786.00
180.00,0.000000,0.000000,75197.44,35.75,0.00,42.19,42.19,0.00,-0.85,0.04,0.48,-2.21,-1.71,0.28,764.00,24320.00,29786.00
182.00,0.000000,0.000000,75195.32,35.76,0.00,42.41,42.41,0.00,-0.86,0.05,0.49,1.62,-5.63,2.92,764.00,24320.00,29786.00
184.00,0.000000,0.000000,75193.95,35.78,0.00,42.56,42.56,0.00,-0.84,0.38,0.22,18.50,4.78,-0.18,764.00,24320.00,29786.00
186.00,0.000000,0.000000,75193.58,35.79,0.00,42.60,42.60,0.00,-0.14,0.91,0.22,4.07,-9.99,2.91,764.00,24320.00,29786.00
188.02,0.000000,0.000000,75193.28,35.81,0.00,42.63,42.63,0.00,-0.72,0.79,0.85,18.15,-42.56,-41.96,764.00,24320.00,29786.00
190.03,0.000000,0.000000,75192.49,35.82,0.00,42.71,42.71,0.00,-0.03,-0.52,0.87,-19.62,30.18,38.51,764.00,24320.00,29786.00
192.03,0.000000,0.000000,75192.18,35.83,0.00,42.75,42.75,0.00,-0.20,-0.27,0.90,12.47,12.15,-10.48,764.00,24320.00,29786.00
194.00,0.000000,0.000000,75191.30,35.84,0.00,42.84,42.84,0.00,0.43,-0.73,0.45,4.84,-28.50,-67.60,764.00,24320.00,29786.00
196.00,0.000000,0.000000,75191.30,35.85,0.00,42.84,42.84,0.00,0.42,-0.82,0.33,-10.22,-9.90,14.11,764.00,24320.00,29786.00
198.01,0.000000,0.000000,75189.86,35.86,0.00,42.99,42.99,0.00,0.96,-0.06,0.45,16.01,-53.86,-4.85,764.00,24320.00,29786.00
200.00,0.000000,0.000000,75189.37,35.86,0.00,43.04,43.04,0.00,0.63,0.17,0.63,0.85,-11.05,1.73,764.00,24320.00,29786.00
202.00,0.000000,0.000000,75188.77,35.86,0.00,43.11,43.11,0.00,0.21,-0.47,0.73,-15.89,35.36,91.19,764.00,24320.00,29786.00
204.00,0.000000,0.000000,75189.04,35.87,0.00,43.08,43.08,0.00,0.34,-0.16,0.62,26.13,4.01,-166.82,764.00,24320.00,29786.00
206.00,0.000000,0.000000,75186.45,35.87,0.00,43.35,43.35,0.00,0.42,0.04,0.62,-2.49,58.81,-1.01,764.00,24320.00,29786.00
208.00,0.000000,0.000000,75185.72,35.87,0.00,43.43,43.43,0.00,0.17,-0.34,0.84,36.45,27.10,19.08,764.00,24320.00,29786.00
210.00,0.000000,0.000000,75185.64,35.87,0.00,43.44,43.44,0.00,0.19,-0.72,0.81,-11.66,5.01,14.40,764.00,24320.00,29786.00
212.00,0.000000,0.000000,75184.81,35.88,0.00,43.53,43.53,0.00,0.27,-0.40,0.82,-0.40,-1.66,5.74,764.00,24320.00,29786.00
214.01,0.000000,0.000000,75184.20,35.88,0.00,43.59,43.59,0.00,0.28,-0.38,0.81,-1.88,-0.31,3.38,764.00,24320.00,29786.00
216.00,0.000000,0.000000,75185.23,35.88,0.00,43.48,43.48,0.00,0.31,-0.45,0.87,15.01,-6.80,-22.22,764.00,24320.00,29786.00
218.00,0.000000,0.000000,75185.77,35.89,0.00,43.43,43.43,0.00,0.26,-0.94,1.29,-32.73,-21.20,4.97,764.00,24320.00,29786.00
220.02,0.000000,0.000000,75185.96,35.89,0.00,43.41,43.41,0.00,0.09,0.36,0.53,-144.36,-59.81,-97.04,764.00,24320.00,29786.00
224.00,0.000000,0.000000,75186.84,35.89,0.00,43.31,43.31,0.00,0.44,-0.51,0.71,-6.01,-6.04,-2.78,764.00,24320.00,29786.00
226.02,0.000000,0.000000,75187.11,35.90,0.00,43.28,43.28,0.00,0.21,-0.09,1.08,221.64,104.08,58.99,764.00,24320.00,29786.00
228.00,0.000000,0.000000,75187.27,35.90,0.00,43.27,43.27,0.00,-0.01,0.11,0.96,0.12,-3.35,0.87,764.00,24320.00,29786.00
230.00,0.000000,0.000000,75187.77,35.91,0.00,43.21,43.21,0.00,0.01,0.11,0.95,-0.77,-2.89,-0.11,764.00,24320.00,29786.00
232.02,0.000000,0.000000,75187.66,35.92,0.00,43.23,43.23,0.00,-0.53,-0.18,0.73,-124.31,249.99,161.47,764.00,24320.00,29786.00
234.00,0.000000,0.000000,75187.95,35.93,0.00,43.19,43.19,0.00,-0.30,-0.39,0.97,55.18,-20.13,9.22,764.00,24320.00,29786.00
236.00,0.000000,0.000000,75187.23,35.93,0.00,43.27,43.27,0.00,-0.66,0.06,0.80,5.53,-13.34,4.03,764.00,24320.00,29786.00
238.02,0.000000,0.000000,75186.79,35.94,0.00,43.32,43.32,0.00,0.04,-0.33,0.89,-21.19,-19.37,-30.78,764.00,24320.00,29786.00
240.00,0.000000,0.000000,75187.15,35.95,0.00,43.28,43.28,0.00,-0.06,-0.39,0.87,-14.66,7.74,33.32,764.00,24320.00,29786.00
242.00,0.000000,0.000000,75188.56,35.96,0.00,43.13,43.13,0.00,0.34,-0.76,0.49,-3.44,-3.00,2.39,764.00,24320.00,29786.00
244.00,0.000000,0.000000,75189.85,35.96,0.00,42.99,42.99,0.00,0.15,-0.30,0.89,26.73,43.17,0.80,764.00,24320.00,29786.00
246.01,0.000000,0.000000,75191.47,35.97,0.00,42.82,42.82,0.00,0.12,-0.75,0.66,249.99,78.15,-111.02,764.00,24320.00,29786.00
247.99,0.000000,0.000000,75192.58,35.97,0.00,42.70,42.70,0.00,0.15,-0.14,0.93,-2.63,-3.00,3.72,764.00,24320.00,29786.00
250.03,0.000000,0.000000,75192.64,35.98,0.00,42.70,42.70,0.00,0.69,-0.01,0.89,91.22,-155.24,-111.83,764.00,24320.00,29786.00
252.01,0.000000,0.000000,75191.84,35.99,0.00,42.78,42.78,0.00,0.03,0.70,0.70,-13.73,-7.23,-25.75,764.00,24320.00,29786.00
254.00,0.000000,0.000000,75191.62,36.00,0.00,42.81,42.81,0.00,0.40,0.10,0.97,88.06,-25.65,-28.95,764.00,24320.00,29786.00
255.98,0.000000,0.000000,75192.67,36.00,0.00,42.69,42.69,0.00,-0.00,0.14,0.95,3.59,3.05,9.20,764.00,24320.00,29786.00
258.00,0.000000,0.000000,75190.91,36.01,0.00,42.88,42.88,0.00,0.03,0.09,0.96,-0.36,-2.93,0.60,764.00,24320.00,29786.00
260.00,0.000000,0.000000,75189.68,36.02,0.00,43.01,43.01,0.00,0.02,0.08,0.98,-1.41,-3.69,0.90,764.00,24320.00,29786.00
262.00,0.000000,0.000000,75189.17,36.02,0.00,43.07,43.07,0.00,0.03,0.08,0.96,-0.66,-3.01,0.17,764.00,24320.00,29786.00
264.00,0.000000,0.000000,75188.29,36.03,0.00,43.16,43.16,0.00,0.03,0.09,0.96,-0.50,-3.01,0.44,764.00,24320.00,29786.00
266.00,0.000000,0.000000,75185.46,36.03,0.00,43.46,43.46,0.00,0.03,0.08,0.95,-0.60,-2.62,0.37,764.00,24320.00,29786.00
268.00,0.000000,0.000000,75185.40,36.04,0.00,43.47,43.47,0.00,0.03,0.09,1.02,-0.50,-2.91,0.37,764.00,24320.00,29786.00
270.00,0.000000,0.000000,75185.39,36.04,0.00,43.47,43.47,0.00,0.03,0.08,0.98,-0.52,-2.53,0.34,764.00,24320.00,29786.00
271.99,0.000000,0.000000,75185.27,36.04,0.00,43.48,43.48,0.00,0.02,0.09,0.97,-0.66,-3.07,0.37,764.00,24320.00,29786.00
273.99,0.000000,0.000000,75185.55,36.05,0.00,43.45,43.45,0.00,0.03,0.08,0.93,-0.80,-2.79,0.21,764.00,24320.00,29786.00
276.00,0.000000,0.000000,75185.94,36.05,0.00,43.41,43.41,0.00,0.03,0.09,0.94,-0.61,-2.73,0.62,764.00,24320.00,29786.00
278.00,0.000000,0.000000,75186.68,36.05,0.00,43.33,43.33,0.00,0.01,0.07,0.94,-0.74,-2.97,0.12,764.00,24320.00,29786.00
280.00,0.000000,0.000000,75187.34,36.05,0.00,43.26,43.26,0.00,0.07,0.05,0.92,0.34,-2.10,-0.57,764.00,24320.00,29786.00
282.00,0.000000,0.000000,75187.66,36.06,0.00,43.23,43.23,0.00,0.03,0.09,0.95,-0.68,-2.64,0.18,764.00,24320.00,29786.00
284.00,0.000000,0.000000,75187.18,36.06,0.00,43.28,43.28,0.00,0.04,0.08,0.98,-0.27,-2.69,-0.24,764.00,24320.00,29786.00
286.00,0.000000,0.000000,75186.83,36.06,0.00,43.31,43.31,0.00,0.02,0.09,0.95,-0.85,-3.04,0.79,764.00,24320.00,29786.00
288.00,0.000000,0.000000,75185.88,36.06,0.00,43.41,43.41,0.00,0.02,0.09,0.98,-0.24,-2.95,0.18,764.00,24320.00,29786.00
290.00,0.000000,0.000000,75184.65,36.06,0.00,43.55,43.55,0.00,0.03,0.08,0.96,-0.50,-2.84,0.43,764.00,24320.00,29786.00
292.00,0.000000,0.000000,75184.07,36.06,0.00,43.61,43.61,0.00,0.10,0.37,0.97,0.51,-15.59,-143.53,764.00,24320.00,29786.00
294.00,0.000000,0.000000,75183.72,36.07,0.00,43.64,43.64,0.00,0.06,0.07,0.98,-2.29,-6.29,0.53,764.00,24320.00,29786.00
296.00,0.000000,0.000000,75184.45,36.06,0.00,43.57,43.57,0.00,-0.03,0.03,0.96,1.41,-8.51,-4.52,764.00,24320.00,29786.00
298.02,0.000000,0.000000,75185.62,36.07,0.00,43.44,43.44,0.00,-0.06,0.11,0.98,-12.59,-7.10,-40.37,764.00,24320.00,29786.00
300.00,0.000000,0.000000,75187.09,36.07,0.00,43.29,43.29,0.00,-0.03,0.09,0.94,-1.75,-1.27,-3.89,764.00,24320.00,29786.00
302.00,0.000000,0.000000,75187.77,36.07,0.00,43.21,43.21,0.00,0.01,0.06,0.96,-0.72,-2.90,0.32,764.00,24320.00,29786.00
304.00,0.000000,0.000000,75188.12,36.07,0.00,43.18,43.18,0.00,0.01,0.06,0.95,-0.73,-2.60,0.50,764.00,24320.00,29786.00
306.00,0.000000,0.000000,75187.80,36.07,0.00,43.21,43.21,0.00,0.00,0.07,0.96,-0.65,-2.80,0.53,764.00,24320.00,29786.00
308.00,0.000000,0.000000,75187.90,36.08,0.00,43.20,43.20,0.00,0.01,0.07,0.96,-0.63,-3.06,0.09,764.00,24320.00,29786.00
310.00,0.000000,0.000000,75188.01,36.08,0.00,43.19,43.19,0.00,0.01,0.06,0.96,-0.72,-3.05,0.24,764.00,24320.00,29786.00
311.99,0.000000,0.000000,75188.38,36.08,0.00,43.15,43.15,0.00,0.01,0.06,0.97,-0.47,-3.32,0.43,764.00,24320.00,29786.00
314.00,0.000000,0.000000,75188.39,36.08,0.00,43.15,43.15,0.00,0.01,0.06,0.96,-0.79,-2.79,0.21,764.00,24320.00,29786.00
316.00,0.000000,0.000000,75188.60,36.08,0.00,43.13,43.13,0.00,0.01,0.06,0.97,-0.57,-3.09,0.36,764.00,24320.00,29786.00
318.00,0.000000,0.000000,75189.09,36.08,0.00,43.07,43.07,0.00,-0.00,0.07,0.96,-0.72,-2.79,0.37,764.00,24320.00,29786.00
319.99,0.000000,0.000000,75188.91,36.08,0.00,43.09,43.09,0.00,0.01,0.06,0.96,-0.53,-3.24,-0.11,764.00,24320.00,29786.00
321.99,0.000000,0.000000,75189.04,36.09,0.00,43.08,43.08,0.00,0.01,0.06,0.97,-0.63,-2.88,0.24,764.00,24320.00,29786.00
323.99,0.000000,0.000000,75189.49,36.09,0.00,43.03,43.03,0.00,0.01,0.06,0.96,-0.56,-3.04,0.24,764.00,24320.00,29786.00
325.99,0.000000,0.000000,75189.14,36.09,0.00,43.07,43.07,0.00,0.17,0.37,1.15,79.77,-24.95,98.92,764.00,24320.00,29786.00
327.99,0.000000,0.000000,75191.02,36.08,0.00,42.87,42.87,0.00,0.08,-0.45,0.87,26.54,14.58,-24.67,764.00,24320.00,29786.00
329.99,0.000000,0.000000,75193.59,36.08,0.00,42.60,42.60,0.00,0.53,0.27,0.76,-3.96,-11.52,-22.24,764.00,24320.00,29786.00
331.99,0.000000,0.000000,75195.68,36.09,0.00,42.38,42.38,0.00,0.08,0.60,0.77,0.01,-9.82,-8.26,764.00,24320.00,29786.00
333.99,0.000000,0.000000,75196.29,36.09,0.00,42.31,42.31,0.00,-0.41,0.31,0.83,-5.81,-10.25,-7.07,764.00,24320.00,29786.00
335.99,0.000000,0.000000,75197.09,36.09,0.00,42.23,42.23,0.00,-0.54,0.34,0.76,-5.75,-9.84,-39.74,764.00,24320.00,29786.00
338.01,0.000000,0.000000,75195.77,36.10,0.00,42.37,42.37,0.00,-0.60,-0.18,0.73,21.95,-37.02,108.01,764.00,24320.00,29786.00
339.97,0.000000,0.000000,75196.16,36.10,0.00,42.32,42.32,0.00,0.41,0.45,0.74,1.48,4.79,21.04,764.00,24320.00,29786.00
342.01,0.000000,0.000000,75193.75,36.11,0.00,42.58,42.58,0.00,-0.10,-0.01,1.01,-8.00,-7.93,-34.26,764.00,24320.00,29786.00
343.99,0.000000,0.000000,75192.88,36.11,0.00,42.67,42.67,0.00,-0.01,0.08,0.95,-0.34,-2.99,0.20,764.00,24320.00,29786.00
345.99,0.000000,0.000000,75192.23,36.12,0.00,42.74,42.74,0.00,-0.02,0.09,0.96,-0.69,-2.94,0.18,764.00,24320.00,29786.00
347.99,0.000000,0.000000,75191.37,36.12,0.00,42.83,42.83,0.00,-0.01,0.09,0.97,-0.69,-2.78,0.40,764.00,24320.00,29786.00
349.99,0.000000,0.000000,75188.12,36.12,0.00,43.18,43.18,0.00,-0.01,0.10,0.95,-0.59,-2.92,0.10,764.00,24320.00,29786.00
351.99,0.000000,0.000000,75187.59,36.13,0.00,43.23,43.23,0.00,-0.01,0.08,0.97,-0.43,-2.92,0.22,764.00,24320.00,29786.00
353.99,0.000000,0.000000,75187.82,36.13,0.00,43.21,43.21,0.00,-0.01,0.09,0.95,-0.79,-2.88,0.38,764.00,24320.00,29786.00
355.98,0.000000,0.000000,75188.45,36.13,0.00,43.14,43.14,0.00,-0.01,0.08,0.96,-0.78,-2.77,0.23,764.00,24320.00,29786.00
357.99,0.000000,0.000000,75188.08,36.13,0.00,43.18,43.18,0.00,-0.01,0.08,0.96,-1.21,-2.85,0.41,764.00,24320.00,29786.00
359.99,0.000000,0.000000,75188.33,36.13,0.00,43.16,43.16,0.00,-0.01,0.08,0.96,-0.78,-3.01,0.01,764.00,24320.00,29786.00
361.99,0.000000,0.000000,75188.23,36.14,0.00,43.17,43.17,0.00,-0.01,0.09,0.96,0.38,-2.97,0.54,764.00,24320.00,29786.00
364.01,0.000000,0.000000,75188.15,36.13,0.00,43.17,43.17,0.00,-0.17,0.10,1.22,-22.73,-43.95,42.79,764.00,24320.00,29786.00
365.99,0.000000,0.000000,75187.77,36.13,0.00,43.21,43.21,0.00,0.00,0.11,0.95,-0.84,-3.49,0.37,764.00,24320.00,29786.00
367.99,0.000000,0.000000,75187.23,36.13,0.00,43.27,43.27,0.00,-0.00,0.11,0.95,-0.79,-3.78,0.59,764.00,24320.00,29786.00
369.99,0.000000,0.000000,75188.48,36.12,0.00,43.14,43.14,0.00,0.10,-0.05,0.96,-1.91,-2.28,-1.40,764.00,24320.00,29786.00
371.99,0.000000,0.000000,75189.43,36.12,0.00,43.04,43.04,0.00,-0.00,0.11,0.95,-1.09,-4.36,0.43,764.00,24320.00,29786.00
373.99,0.000000,0.000000,75189.90,36.12,0.00,42.99,42.99,0.00,-0.02,0.12,0.95,-0.57,-3.27,0.24,764.00,24320.00,29786.00
375.99,0.000000,0.000000,75189.44,36.11,0.00,43.04,43.04,0.00,-0.01,0.09,0.96,-0.56,-2.88,0.18,764.00,24320.00,29786.00
377.99,0.000000,0.000000,75189.60,36.11,0.00,43.02,43.02,0.00,-0.01,0.11,0.95,-1.21,-1.07,0.40,764.00,24320.00,29786.00
379.99,0.000000,0.000000,75187.62,36.10,0.00,43.23,43.23,0.00,-0.01,0.09,0.95,-0.88,-3.49,-0.02,764.00,24320.00,29786.00
381.99,0.000000,0.000000,75186.56,36.10,0.00,43.34,43.34,0.00,0.00,0.11,0.96,-3.59,-0.85,0.15,764.00,24320.00,29786.00
383.99,0.000000,0.000000,75185.90,36.10,0.00,43.41,43.41,0.00,-0.02,0.10,0.96,-0.82,-2.14,-0.04,764.00,24320.00,29786.00
385.99,0.000000,0.000000,75185.46,36.09,0.00,43.46,43.46,0.00,-0.01,0.10,0.96,-0.71,-3.27,0.07,764.00,24320.00,29786.00
387.99,0.000000,0.000000,75185.85,36.08,0.00,43.42,43.42,0.00,-0.02,0.10,0.96,-1.42,-1.95,0.06,764.00,24320.00,29786.00
389.99,0.000000,0.000000,75185.64,36.08,0.00,43.44,43.44,0.00,0.01,0.11,0.96,-0.41,-2.26,0.13,764.00,24320.00,29786.00
392.01,0.000000,0.000000,75186.23,36.08,0.00,43.38,43.38,0.00,0.28,-0.15,1.09,39.28,-18.65,-30.19,764.00,24320.00,29786.00
393.99,0.000000,0.000000,75186.53,36.06,0.00,43.35,43.35,0.00,0.06,-0.04,0.97,-15.01,-7.78,2.75,764.00,24320.00,29786.00
395.99,0.000000,0.000000,75187.21,36.06,0.00,43.27,43.27,0.00,-0.01,0.10,0.96,-0.45,-3.23,0.45,764.00,24320.00,29786.00
397.99,0.000000,0.000000,75186.55,36.06,0.00,43.34,43.34,0.00,-0.01,0.11,0.95,-0.72,-2.91,0.23,764.00,24320.00,29786.00
399.99,0.000000,0.000000,75187.10,36.05,0.00,43.28,43.28,0.00,0.01,0.09,0.95,-0.56,-3.63,0.72,764.00,24320.00,29786.00
401.99,0.000000,0.000000,75187.54,36.05,0.00,43.24,43.24,0.00,0.01,0.11,0.96,-0.90,-2.60,0.37,764.00,24320.00,29786.00
403.99,0.000000,0.000000,75187.73,36.05,0.00,43.22,43.22,0.00,-0.00,0.10,0.95,-0.58,-3.50,0.60,764.00,24320.00,29786.00
405.99,0.000000,0.000000,75188.00,36.04,0.00,43.19,43.19,0.00,-0.00,0.10,0.95,-0.55,-3.04,0.27,764.00,24320.00,29786.00
407.99,0.000000,0.000000,75188.36,36.04,0.00,43.15,43.15,0.00,-0.01,0.11,0.95,-0.82,-2.76,0.51,764.00,24320.00,29786.00
409.99,0.000000,0.000000,75188.09,36.03,0.00,43.18,43.18,0.00,-0.01,0.10,0.96,-0.59,-2.78,0.37,764.00,24320.00,29786.00
412.00,0.000000,0.000000,75187.49,36.02,0.00,43.24,43.24,0.00,-0.01,0.10,0.95,-0.92,-2.82,-0.04,764.00,24320.00,29786.00
413.99,0.000000,0.000000,75186.85,36.02,0.00,43.31,43.31,0.00,-0.01,0.09,0.96,-0.64,-2.85,0.07,764.00,24320.00,29786.00
416.00,0.000000,0.000000,75186.44,36.02,0.00,43.36,43.36,0.00,-0.01,0.09,0.96,-0.55,-2.91,0.34,764.00,24320.00,29786.00
418.00,0.000000,0.000000,75186.68,36.01,0.00,43.33,43.33,0.00,-0.01,0.10,0.96,-0.53,-2.79,0.36,764.00,24320.00,29786.00
419.99,0.000000,0.000000,75186.67,36.01,0.00,43.33,43.33,0.00,-0.01,0.09,0.95,-0.78,-3.02,0.33,764.00,24320.00,29786.00
421.99,0.000000,0.000000,75187.02,36.00,0.00,43.29,43.29,0.00,-0.02,0.10,0.96,-0.75,-2.70,0.45,764.00,24320.00,29786.00
423.99,0.000000,0.000000,75187.35,36.00,0.00,43.26,43.26,0.00,-0.01,0.09,0.95,-0.43,-3.07,0.15,764.00,24320.00,29786.00
425.99,0.000000,0.000000,75187.21,36.00,0.00,43.27,43.27,0.00,-0.01,0.10,0.95,-0.60,-2.63,0.24,764.00,24320.00,29786.00
427.99,0.000000,0.000000,75186.85,36.00,0.00,43.31,43.31,0.00,-0.01,0.10,0.96,-0.17,-3.20,0.40,764.00,24320.00,29786.00
429.99,0.000000,0.000000,75186.98,35.99,0.00,43.30,43.30,0.00,-0.01,0.10,0.96,-1.01,-2.97,0.20,764.00,24320.00,29786.00
431.99,0.000000,0.000000,75186.81,35.99,0.00,43.32,43.32,0.00,-0.01,0.10,0.95,-0.27,-3.04,0.37,764.00,24320.00,29786.00
434.00,0.000000,0.000000,75185.92,35.99,0.00,43.41,43.41,0.00,-0.01,0.10,0.96,-1.08,-2.85,0.34,764.00,24320.00,29786.00
436.00,0.000000,0.000000,75186.39,35.99,0.00,43.36,43.36,0.00,-0.00,0.10,0.95,-0.60,-2.83,0.14,764.00,24320.00,29786.00
437.99,0.000000,0.000000,75186.56,35.99,0.00,43.34,43.34,0.00,-0.01,0.10,0.96,-0.81,-2.55,0.28,764.00,24320.00,29786.00
440.00,0.000000,0.000000,75186.23,35.98,0.00,43.38,43.38,0.00,-0.00,0.10,0.96,-0.56,-2.77,0.47,764.00,24320.00,29786.00
441.99,0.000000,0.000000,75185.90,35.98,0.00,43.41,43.41,0.00,-0.01,0.10,0.96,-1.02,-2.82,0.66,764.00,24320.00,29786.00
443.99,0.000000,0.000000,75186.55,35.97,0.00,43.34,43.34,0.00,-0.01,0.10,0.96,-0.67,-2.72,0.63,764.00,24320.00,29786.00
445.98,0.000000,0.000000,75186.38,35.98,0.00,43.36,43.36,0.00,-0.01,0.10,0.97,-0.43,-2.94,0.14,764.00,24320.00,29786.00
448.00,0.000000,0.000000,75186.35,35.97,0.00,43.36,43.36,0.00,-0.01,0.10,0.96,-0.34,-2.96,0.12,764.00,24320.00,29786.00
449.99,0.000000,0.000000,75186.65,35.97,0.00,43.33,43.33,0.00,-0.01,0.09,0.96,-0.69,-2.93,0.47,764.00,24320.00,29786.00
452.00,0.000000,0.000000,75187.05,35.97,0.00,43.29,43.29,0.00,-0.01,0.09,0.95,-0.22,-2.88,0.54,764.00,24320.00,29786.00
454.00,0.000000,0.000000,75187.33,35.97,0.00,43.26,43.26,0.00,-0.01,0.09,0.95,-0.61,-2.70,0.62,764.00,24320.00,29786.00
455.99,0.000000,0.000000,75187.16,35.96,0.00,43.28,43.28,0.00,-0.01,0.09,0.96,-0.32,-3.17,0.40,764.00,24320.00,29786.00
458.00,0.000000,0.000000,75187.07,35.96,0.00,43.29,43.29,0.00,-0.02,0.10,0.96,-0.51,-2.82,0.42,764.00,24320.00,29786.00
459.99,0.000000,0.000000,75187.14,35.96,0.00,43.28,43.28,0.00,-0.02,0.08,0.96,-0.77,-2.87,0.05,764.00,24320.00,29786.00
462.00,0.000000,0.000000,75186.87,35.95,0.00,43.31,43.31,0.00,-0.02,0.09,0.95,-0.65,-2.93,0.56,764.00,24320.00,29786.00
463.99,0.000000,0.000000,75186.71,35.95,0.00,43.33,43.33,0.00,-0.03,0.09,0.95,-0.24,-3.01,0.92,764.00,24320.00,29786.00
465.99,0.000000,0.000000,75186.63,35.94,0.00,43.33,43.33,0.00,-0.02,0.08,0.97,-1.06,-2.98,0.05,764.00,24320.00,29786.00
467.99,0.000000,0.000000,75186.64,35.95,0.00,43.33,43.33,0.00,-0.01,0.09,0.96,-0.71,-2.89,0.43,764.00,24320.00,29786.00
469.99,0.000000,0.000000,75186.39,35.93,0.00,43.36,43.36,0.00,-0.01,0.09,0.96,-0.64,-3.11,0.39,764.00,24320.00,29786.00
471.99,0.000000,0.000000,75186.05,35.93,0.00,43.40,43.40,0.00,-0.01,0.08,0.96,-0.86,-2.71,0.26,764.00,24320.00,29786.00
473.98,0.000000,0.000000,75185.46,35.93,0.00,43.46,43.46,0.00,-0.01,0.09,0.97,-1.05,-2.59,0.10,764.00,24320.00,29786.00
476.00,0.000000,0.000000,75185.18,35.93,0.00,43.49,43.49,0.00,-0.02,0.08,0.97,-0.67,-2.91,0.34,764.00,24320.00,29786.00
477.99,0.000000,0.000000,75184.81,35.93,0.00,43.53,43.53,0.00,-0.02,0.07,0.95,-0.55,-2.97,0.31,764.00,24320.00,29786.00
479.99,0.000000,0.000000,75184.08,35.92,0.00,43.61,43.61,0.00,-0.02,0.09,0.93,-0.64,-2.88,0.45,764.00,24320.00,29786.00
481.98,0.000000,0.000000,75184.15,35.92,0.00,43.60,43.60,0.00,-0.03,0.11,0.95,0.07,-3.09,0.64,764.00,24320.00,29786.00
483.98,0.000000,0.000000,75183.82,35.92,0.00,43.63,43.63,0.00,-0.01,0.09,0.96,-0.97,-2.72,0.20,764.00,24320.00,29786.00
485.98,0.000000,0.000000,75184.08,35.91,0.00,43.61,43.61,0.00,-0.01,0.09,0.98,-1.24,-2.95,0.03,764.00,24320.00,29786.00
487.99,0.000000,0.000000,75184.05,35.90,0.00,43.61,43.61,0.00,-0.05,0.09,0.93,-0.53,-3.31,-6.71,764.00,24320.00,29786.00
489.99,0.000000,0.000000,75184.73,35.90,0.00,43.54,43.54,0.00,-0.01,0.08,0.96,-0.68,-2.96,0.45,764.00,24320.00,29786.00
492.00,0.000000,0.000000,75184.23,35.90,0.00,43.59,43.59,0.00,-0.02,0.08,0.96,-0.73,-2.70,0.40,764.00,24320.00,29786.00
493.99,0.000000,0.000000,75184.97,35.89,0.00,43.51,43.51,0.00,-0.01,0.10,0.96,-0.50,-2.91,0.43,764.00,24320.00,29786.00
496.00,0.000000,0.000000,75185.25,35.89,0.00,43.48,43.48,0.00,-0.00,0.10,0.96,-0.87,-2.85,0.35,764.00,24320.00,29786.00
497.99,0.000000,0.000000,75185.34,35.88,0.00,43.47,43.47,0.00,-0.00,0.10,0.96,-0.53,-3.04,0.40,764.00,24320.00,29786.00
499.99,0.000000,0.000000,75185.20,35.88,0.00,43.49,43.49,0.00,-0.00,0.08,0.99,0.18,-3.14,0.03,764.00,24320.00,29786.00
502.00,0.000000,0.000000,75185.31,35.88,0.00,43.48,43.48,0.00,-0.01,0.09,0.96,-0.74,-2.73,0.41,764.00,24320.00,29786.00
503.99,0.000000,0.000000,75185.02,35.87,0.00,43.51,43.51,0.00,-0.05,-0.01,0.94,5.26,-9.58,0.47,764.00,24320.00,29786.00
505.99,0.000000,0.000000,75184.08,35.87,0.00,43.61,43.61,0.00,-0.01,0.11,0.96,-0.30,-3.04,0.31,764.00,24320.00,29786.00
508.00,0.000000,0.000000,75184.31,35.87,0.00,43.58,43.58,0.00,0.01,0.10,0.95,1.82,-14.21,-15.41,764.00,24320.00,29786.00
509.99,0.000000,0.000000,75184.56,35.86,0.00,43.55,43.55,0.00,0.06,-0.47,0.79,2.81,6.39,16.94,764.00,24320.00,29786.00
512.00,0.000000,0.000000,75186.53,35.85,0.00,43.35,43.35,0.00,0.24,-0.34,0.99,41.24,-9.39,-138.74,764.00,24320.00,29786.00
513.99,0.000000,0.000000,75186.05,35.84,0.00,43.40,43.40,0.00,0.18,-0.49,0.83,-2.57,-6.71,-21.77,764.00,24320.00,29786.00
515.97,0.000000,0.000000,75189.25,35.83,0.00,43.06,43.06,0.00,0.30,-0.47,0.80,7.16,9.14,4.80,764.00,24320.00,29786.00
518.00,0.000000,0.000000,75192.05,35.83,0.00,42.76,42.76,0.00,0.11,-0.40,0.92,39.91,-37.46,82.57,764.00,24320.00,29786.00
519.99,0.000000,0.000000,75192.85,35.82,0.00,42.68,42.68,0.00,0.01,0.10,0.96,-0.31,-3.40,0.85,764.00,24320.00,29786.00
521.99,0.000000,0.000000,75190.57,35.81,0.00,42.92,42.92,0.00,0.01,0.09,0.95,-2.60,-1.56,-0.87,764.00,24320.00,29786.00
524.01,0.000000,0.000000,75191.08,35.81,0.00,42.86,42.86,0.00,-0.39,0.74,0.59,-78.50,45.96,115.98,764.00,24320.00,29786.00
525.99,0.000000,0.000000,75188.61,35.81,0.00,43.13,43.13,0.00,-0.31,0.90,0.15,37.99,34.95,82.50,764.00,24320.00,29786.00
527.99,0.000000,0.000000,75187.50,35.81,0.00,43.24,43.24,0.00,0.11,0.89,0.48,-7.92,3.61,26.05,764.00,24320.00,29786.00
529.99,0.000000,0.000000,75189.11,35.80,0.00,43.07,43.07,0.00,0.89,-0.27,0.42,7.91,-22.13,64.99,764.00,24320.00,29786.00
531.99,0.000000,0.000000,75190.44,35.80,0.00,42.93,42.93,0.00,0.60,0.78,0.31,2.56,-2.37,-4.74,764.00,24320.00,29786.00
533.97,0.000000,0.000000,75192.23,35.80,0.00,42.74,42.74,0.00,0.63,0.74,0.23,0.56,-2.85,0.38,764.00,24320.00,29786.00
535.97,0.000000,0.000000,75193.53,35.79,0.00,42.60,42.60,0.00,0.65,0.71,0.23,0.56,-5.56,3.01,764.00,24320.00,29786.00
537.99,0.000000,0.000000,75193.10,35.79,0.00,42.65,42.65,0.00,0.65,0.73,0.22,-1.25,-4.10,3.33,764.00,24320.00,29786.00
539.99,0.000000,0.000000,75192.55,35.79,0.00,42.71,42.71,0.00,0.65,0.70,0.21,-5.52,1.74,-21.52,764.00,24320.00,29786.00
541.99,0.000000,0.000000,75194.20,35.79,0.00,42.53,42.53,0.00,0.75,0.22,0.60,15.05,18.57,29.94,764.00,24320.00,29786.00
543.99,0.000000,0.000000,75193.14,35.78,0.00,42.64,42.64,0.00,0.71,-0.23,0.65,3.45,-5.54,-0.22,764.00,24320.00,29786.00
545.99,0.000000,0.000000,75192.60,35.77,0.00,42.70,42.70,0.00,0.42,-0.54,0.71,17.75,-8.38,8.63,764.00,24320.00,29786.00
547.99,0.000000,0.000000,75192.16,35.77,0.00,42.75,42.75,0.00,0.30,-0.44,0.79,2.11,-3.94,0.94,764.00,24320.00,29786.00
550.02,0.000000,0.000000,75190.63,35.77,0.00,42.91,42.91,0.00,0.55,0.11,0.88,-58.14,69.36,-140.75,764.00,24320.00,29786.00
551.99,0.000000,0.000000,75187.36,35.78,0.00,43.26,43.26,0.00,0.03,0.09,0.95,-0.60,-3.04,-0.01,764.00,24320.00,29786.00
553.99,0.000000,0.000000,75186.10,35.77,0.00,43.39,43.39,0.00,0.03,0.07,0.96,-0.39,-2.58,0.07,764.00,24320.00,29786.00
555.99,0.000000,0.000000,75184.41,35.77,0.00,43.57,43.57,0.00,0.02,0.10,0.96,-1.68,-3.43,1.08,764.00,24320.00,29786.00
557.99,0.000000,0.000000,75183.13,35.77,0.00,43.71,43.71,0.00,0.04,0.09,0.97,-1.01,-2.85,0.49,764.00,24320.00,29786.00
559.99,0.000000,0.000000,75181.98,35.78,0.00,43.83,43.83,0.00,0.04,0.08,0.96,-0.34,-2.87,0.33,764.00,24320.00,29786.00
561.99,0.000000,0.000000,75182.23,35.78,0.00,43.80,43.80,0.00,0.03,0.08,0.96,-0.63,-2.85,0.37,764.00,24320.00,29786.00
563.99,0.000000,0.000000,75182.47,35.78,0.00,43.78,43.78,0.00,0.03,0.09,0.96,-0.69,-3.00,0.24,764.00,24320.00,29786.00
565.99,0.000000,0.000000,75182.50,35.78,0.00,43.77,43.77,0.00,0.04,0.09,0.96,-0.78,-2.88,0.43,764.00,24320.00,29786.00
567.99,0.000000,0.000000,75183.14,35.79,0.00,43.71,43.71,0.00,0.03,0.09,0.95,-0.76,-2.92,0.34,764.00,24320.00,29786.00
569.99,0.000000,0.000000,75183.80,35.79,0.00,43.64,43.64,0.00,0.04,0.09,0.97,-0.56,-2.72,0.27,764.00,24320.00,29786.00
571.99,0.000000,0.000000,75183.86,35.79,0.00,43.63,43.63,0.00,0.03,0.08,0.97,-0.88,-2.88,0.38,764.00,24320.00,29786.00
573.99,0.000000,0.000000,75183.52,35.79,0.00,43.67,43.67,0.00,0.03,0.10,0.96,-0.73,-2.88,0.27,764.00,24320.00,29786.00
575.99,0.000000,0.000000,75183.46,35.79,0.00,43.67,43.67,0.00,0.04,0.09,0.95,-0.85,-2.93,0.10,764.00,24320.00,29786.00
577.99,0.000000,0.000000,75182.88,35.79,0.00,43.73,43.73,0.00,0.03,0.09,0.95,-0.84,-3.05,0.58,764.00,24320.00,29786.00
579.98,0.000000,0.000000,75182.36,35.80,0.00,43.79,43.79,0.00,-0.29,0.30,1.02,-10.49,-23.01,2.77,764.00,24320.00,29786.00
582.01,0.000000,0.000000,75181.70,35.80,0.00,43.86,43.86,0.00,-0.42,0.46,0.57,-53.73,-11.06,83.98,764.00,24320.00,29786.00
583.99,0.000000,0.000000,75184.48,35.80,0.00,43.56,43.56,0.00,0.89,0.09,0.44,-12.03,-35.88,17.24,764.00,24320.00,29786.00
585.99,0.000000,0.000000,75186.98,35.79,0.00,43.30,43.30,0.00,-0.51,-0.35,0.71,-19.69,3.67,23.93,764.00,24320.00,29786.00
588.00,0.000000,0.000000,75187.45,35.79,0.00,43.25,43.25,0.00,-0.35,-0.67,0.63,43.53,-33.84,-78.77,764.00,24320.00,29786.00
589.99,0.000000,0.000000,75188.57,35.79,0.00,43.13,43.13,0.00,0.06,-0.03,1.07,39.44,47.38,52.83,764.00,24320.00,29786.00
591.99,0.000000,0.000000,75189.16,35.79,0.00,43.07,43.07,0.00,-0.01,0.08,0.96,-0.91,-2.90,0.50,764.00,24320.00,29786.00
593.99,0.000000,0.000000,75186.41,35.80,0.00,43.36,43.36,0.00,-0.01,0.09,0.96,-0.41,-3.14,0.53,764.00,24320.00,29786.00
595.99,0.000000,0.000000,75184.67,35.79,0.00,43.54,43.54,0.00,-0.01,0.09,0.96,-1.04,-3.01,0.23,764.00,24320.00,29786.00
597.99,0.000000,0.000000,75184.03,35.80,0.00,43.61,43.61,0.00,-0.00,0.10,0.98,0.21,-3.08,0.57,764.00,24320.00,29786.00
599.98,0.000000,0.000000,75182.67,35.80,0.00,43.75,43.75,0.00,-0.01,0.09,0.96,-0.90,-2.85,0.18,764.00,24320.00,29786.00
601.99,0.000000,0.000000,75182.80,35.80,0.00,43.74,43.74,0.00,-0.01,0.09,0.96,-0.85,-2.85,0.50,764.00,24320.00,29786.00
603.99,0.000000,0.000000,75182.66,35.80,0.00,43.76,43.76,0.00,-0.02,0.08,0.95,-0.51,-2.75,0.19,764.00,24320.00,29786.00
605.99,0.000000,0.000000,75181.92,35.81,0.00,43.83,43.83,0.00,-0.01,0.09,0.96,-0.52,-3.07,0.21,764.00,24320.00,29786.00
607.99,0.000000,0.000000,75182.15,35.81,0.00,43.81,43.81,0.00,-0.01,0.09,0.96,-0.60,-2.85,0.22,764.00,24320.00,29786.00
609.99,0.000000,0.000000,75182.86,35.82,0.00,43.74,43.74,0.00,-0.02,0.09,0.96,-0.59,-2.86,0.24,764.00,24320.00,29786.00
611.99,0.000000,0.000000,75183.30,35.82,0.00,43.69,43.69,0.00,-0.02,0.09,0.95,-0.63,-2.96,0.53,764.00,24320.00,29786.00
613.99,0.000000,0.000000,75183.73,35.82,0.00,43.64,43.64,0.00,-0.01,0.10,0.96,-0.52,-2.68,0.36,764.00,24320.00,29786.00
615.99,0.000000,0.000000,75183.98,35.82,0.00,43.62,43.62,0.00,-0.02,0.07,0.97,-0.45,-2.81,0.40,764.00,24320.00,29786.00
617.99,0.000000,0.000000,75183.34,35.82,0.00,43.68,43.68,0.00,-0.01,0.09,0.96,-1.01,-2.87,0.01,764.00,24320.00,29786.00
619.99,0.000000,0.000000,75182.66,35.82,0.00,43.76,43.76,0.00,-0.01,0.09,0.96,-0.96,-2.94,-0.07,764.00,24320.00,29786.00
621.99,0.000000,0.000000,75181.84,35.83,0.00,43.84,43.84,0.00,-0.02,0.08,0.95,-0.34,-2.82,0.49,764.00,24320.00,29786.00
623.99,0.000000,0.000000,75181.52,35.83,0.00,43.88,43.88,0.00,-0.02,0.09,0.96,-0.75,-2.69,0.59,764.00,24320.00,29786.00
625.99,0.000000,0.000000,75181.35,35.83,0.00,43.90,43.90,0.00,-0.01,0.09,0.95,-0.69,-3.08,0.32,764.00,24320.00,29786.00
627.99,0.000000,0.000000,75182.17,35.83,0.00,43.81,43.81,0.00,-0.01,0.09,0.95,-0.53,-2.96,0.31,764.00,24320.00,29786.00
629.99,0.000000,0.000000,75182.78,35.84,0.00,43.74,43.74,0.00,-0.02,0.10,0.96,-0.53,-2.90,0.34,764.00,24320.00,29786.00
631.99,0.000000,0.000000,75183.08,35.84,0.00,43.71,43.71,0.00,-0.01,0.10,0.96,-0.62,-2.85,0.22,764.00,24320.00,29786.00
633.99,0.000000,0.000000,75183.27,35.84,0.00,43.69,43.69,0.00,-0.01,0.10,0.96,-0.85,-2.81,0.17,764.00,24320.00,29786.00
635.99,0.000000,0.000000,75182.98,35.85,0.00,43.72,43.72,0.00,-0.01,0.10,0.96,-0.61,-3.20,0.51,764.00,24320.00,29786.00
637.99,0.000000,0.000000,75182.34,35.85,0.00,43.79,43.79,0.00,-0.01,0.10,0.96,-0.43,-2.99,0.50,764.00,24320.00,29786.00
639.98,0.000000,0.000000,75181.87,35.86,0.00,43.84,43.84,0.00,-0.01,0.10,0.96,-0.56,-2.92,0.38,764.00,24320.00,29786.00
641.99,0.000000,0.000000,75182.00,35.85,0.00,43.83,43.83,0.00,-0.02,0.10,0.96,-0.66,-3.04,0.38,764.00,24320.00,29786.00
643.99,0.000000,0.000000,75181.66,35.86,0.00,43.86,43.86,0.00,-0.01,0.10,0.96,-0.66,-2.91,0.24,764.00,24320.00,29786.00
645.99,0.000000,0.000000,75181.62,35.86,0.00,43.87,43.87,0.00,-0.01,0.10,0.96,-0.76,-2.72,0.40,764.00,24320.00,29786.00
647.99,0.000000,0.000000,75181.71,35.87,0.00,43.86,43.86,0.00,-0.01,0.10,0.96,-0.64,-2.97,0.56,764.00,24320.00,29786.00
649.99,0.000000,0.000000,75181.27,35.87,0.00,43.90,43.90,0.00,-0.01,0.10,0.96,-0.70,-2.93,-0.01,764.00,24320.00,29786.00
651.99,0.000000,0.000000,75180.95,35.88,0.00,43.94,43.94,0.00,-0.02,0.10,0.96,-0.65,-2.94,0.11,764.00,24320.00,29786.00
653.99,0.000000,0.000000,75180.90,35.87,0.00,43.94,43.94,0.00,-0.01,0.09,0.96,-0.66,-2.82,0.47,764.00,24320.00,29786.00
655.99,0.000000,0.000000,75181.27,35.89,0.00,43.90,43.90,0.00,-0.02,0.10,0.95,-0.66,-2.87,0.03,764.00,24320.00,29786.00
657.99,0.000000,0.000000,75180.69,35.88,0.00,43.96,43.96,0.00,-0.01,0.10,0.96,-0.81,-2.82,0.46,764.00,24320.00,29786.00
659.99,0.000000,0.000000,75180.30,35.89,0.00,44.01,44.01,0.00,-0.01,0.10,0.96,-0.77,-2.85,0.11,764.00,24320.00,29786.00
661.99,0.000000,0.000000,75180.55,35.89,0.00,43.98,43.98,0.00,-0.01,0.10,0.96,-0.70,-2.96,0.33,764.00,24320.00,29786.00
663.99,0.000000,0.000000,75180.80,35.90,0.00,43.95,43.95,0.00,-0.00,0.09,0.96,-0.39,-2.82,0.33,764.00,24320.00,29786.00
665.99,0.000000,0.000000,75180.69,35.90,0.00,43.96,43.96,0.00,-0.01,0.10,0.95,-0.65,-2.72,0.37,764.00,24320.00,29786.00
667.99,0.000000,0.000000,75180.98,35.90,0.00,43.93,43.93,0.00,-0.02,0.10,0.96,-0.60,-2.75,0.31,764.00,24320.00,29786.00
669.99,0.000000,0.000000,75181.64,35.90,0.00,43.86,43.86,0.00,-0.06,0.11,0.98,-0.12,-2.91,0.34,764.00,24320.00,29786.00
671.97,0.000000,0.000000,75181.73,35.90,0.00,43.85,43.85,0.00,0.00,0.10,0.95,0.63,-3.52,0.79,764.00,24320.00,29786.00
673.99,0.000000,0.000000,75181.34,35.90,0.00,43.90,43.90,0.00,-0.00,0.09,0.96,-0.96,-2.79,0.35,764.00,24320.00,29786.00
676.01,0.000000,0.000000,75181.76,35.91,0.00,43.85,43.85,0.00,-0.06,-0.02,0.84,-3.94,-46.26,-83.61,764.00,24320.00,29786.00
678.01,0.000000,0.000000,75181.49,35.91,0.00,43.88,43.88,0.00,0.12,-0.55,0.80,-11.71,-33.85,59.46,764.00,24320.00,29786.00
679.99,0.000000,0.000000,75181.88,35.91,0.00,43.84,43.84,0.00,0.04,-0.10,1.01,27.53,-21.39,25.74,764.00,24320.00,29786.00
681.99,0.000000,0.000000,75182.16,35.92,0.00,43.81,43.81,0.00,-0.01,-0.04,0.95,-2.72,-3.22,-2.72,764.00,24320.00,29786.00
683.98,0.000000,0.000000,75182.49,35.92,0.00,43.77,43.77,0.00,0.01,-0.03,0.96,-0.72,-0.75,1.00,764.00,24320.00,29786.00
685.99,0.000000,0.000000,75182.58,35.92,0.00,43.76,43.76,0.00,-0.11,-0.10,0.94,1.89,1.96,4.65,764.00,24320.00,29786.00
687.99,0.000000,0.000000,75183.09,35.92,0.00,43.71,43.71,0.00,-0.18,-0.05,0.94,-0.15,-2.26,-0.60,764.00,24320.00,29786.00
689.99,0.000000,0.000000,75182.94,35.93,0.00,43.73,43.73,0.00,-0.16,-0.02,0.95,-5.51,-8.14,-0.04,764.00,24320.00,29786.00
691.98,0.000000,0.000000,75182.73,35.93,0.00,43.75,43.75,0.00,-0.13,-0.00,0.95,-0.85,-1.59,0.63,764.00,24320.00,29786.00
693.99,0.000000,0.000000,75183.17,35.94,0.00,43.70,43.70,0.00,-0.11,0.01,0.95,-1.01,-3.51,0.95,764.00,24320.00,29786.00
695.99,0.000000,0.000000,75182.95,35.94,0.00,43.72,43.72,0.00,-0.07,0.05,0.99,48.10,-2.56,3.46,764.00,24320.00,29786.00
697.99,0.000000,0.000000,75182.39,35.95,0.00,43.78,43.78,0.00,-0.00,0.73,0.66,36.48,-56.79,46.09,764.00,24320.00,29786.00
699.98,0.000000,0.000000,75182.77,35.96,0.00,43.74,43.74,0.00,0.13,0.56,0.80,-8.27,1.40,-4.56,764.00,24320.00,29786.00
701.99,0.000000,0.000000,75184.09,35.96,0.00,43.60,43.60,0.00,0.14,0.36,0.90,4.40,-5.00,-1.74,764.00,24320.00,29786.00
703.97,0.000000,0.000000,75185.36,35.97,0.00,43.47,43.47,0.00,0.13,0.34,0.90,0.62,-2.01,4.67,764.00,24320.00,29786.00
705.99,0.000000,0.000000,75184.98,35.98,0.00,43.51,43.51,0.00,0.46,0.21,0.82,4.07,-4.62,-10.70,764.00,24320.00,29786.00
707.99,0.000000,0.000000,75185.27,35.98,0.00,43.48,43.48,0.00,0.28,-0.45,0.81,15.46,-7.38,20.28,764.00,24320.00,29786.00
710.01,0.000000,0.000000,75184.86,35.99,0.00,43.52,43.52,0.00,-0.22,-0.01,0.88,51.87,-10.94,-33.04,764.00,24320.00,29786.00
711.98,0.000000,0.000000,75183.52,36.00,0.00,43.67,43.67,0.00,-0.08,0.01,0.99,-1.53,1.76,-1.85,764.00,24320.00,29786.00
713.98,0.000000,0.000000,75181.55,36.01,0.00,43.87,43.87,0.00,-0.02,0.11,0.96,9.83,-0.78,-30.47,764.00,24320.00,29786.00
715.98,0.000000,0.000000,75181.08,36.02,0.00,43.92,43.92,0.00,-0.01,0.09,0.96,-0.40,-2.92,0.56,764.00,24320.00,29786.00
717.97,0.000000,0.000000,75181.25,36.03,0.00,43.91,43.91,0.00,-0.03,0.10,0.97,-0.23,-3.04,0.47,764.00,24320.00,29786.00
719.98,0.000000,0.000000,75181.05,36.03,0.00,43.93,43.93,0.00,-0.01,0.08,0.96,-0.49,-2.70,0.31,764.00,24320.00,29786.00
721.97,0.000000,0.000000,75180.38,36.04,0.00,44.00,44.00,0.00,-0.03,0.06,0.96,6.74,-6.20,0.71,764.00,24320.00,29786.00
723.98,0.000000,0.000000,75180.36,36.05,0.00,44.00,44.00,0.00,-0.02,0.07,0.96,-0.34,-2.63,0.46,764.00,24320.00,29786.00
726.00,0.000000,0.000000,75180.91,36.05,0.00,43.94,43.94,0.00,-0.04,-0.03,1.04,-17.28,-0.01,-1.80,764.00,24320.00,29786.00
727.98,0.000000,0.000000,75180.64,36.06,0.00,43.97,43.97,0.00,-0.15,0.01,0.87,7.88,-26.66,-96.62,764.00,24320.00,29786.00
729.98,0.000000,0.000000,75180.96,36.07,0.00,43.94,43.94,0.00,0.08,0.22,1.12,-3.94,-11.57,13.88,764.00,24320.00,29786.00
732.00,0.000000,0.000000,75181.77,36.08,0.00,43.85,43.85,0.00,0.05,-0.11,0.92,-13.73,-11.43,48.93,764.00,24320.00,29786.00
733.98,0.000000,0.000000,75182.40,36.08,0.00,43.78,43.78,0.00,0.02,0.11,1.04,-7.06,-1.34,10.19,764.00,24320.00,29786.00
735.98,0.000000,0.000000,75182.52,36.08,0.00,43.77,43.77,0.00,-0.02,0.03,0.97,-0.66,-2.54,0.21,764.00,24320.00,29786.00
737.98,0.000000,0.000000,75182.27,36.09,0.00,43.80,43.80,0.00,-0.02,0.02,0.95,0.31,-3.23,0.62,764.00,24320.00,29786.00
739.98,0.000000,0.000000,75181.20,36.10,0.00,43.91,43.91,0.00,-0.05,0.03,0.95,-3.94,-5.94,-0.76,764.00,24320.00,29786.00
741.98,0.000000,0.000000,75179.92,36.10,0.00,44.05,44.05,0.00,0.02,0.07,0.90,36.90,10.42,-13.50,764.00,24320.00,29786.00
743.98,0.000000,0.000000,75178.27,36.11,0.00,44.22,44.22,0.00,-0.01,0.10,0.88,12.00,9.76,20.44,764.00,24320.00,29786.00
745.97,0.000000,0.000000,75177.80,36.12,0.00,44.27,44.27,0.00,0.02,0.03,0.96,-0.24,-2.84,0.33,764.00,24320.00,29786.00
748.00,0.000000,0.000000,75177.96,36.12,0.00,44.25,44.25,0.00,0.03,0.09,0.81,-12.73,-16.57,-28.24,764.00,24320.00,29786.00
749.95,0.000000,0.000000,75178.04,36.13,0.00,44.25,44.25,0.00,0.04,0.11,0.95,2.20,0.31,-5.59,764.00,24320.00,29786.00
751.97,0.000000,0.000000,75178.44,36.13,0.00,44.20,44.20,0.00,0.06,0.08,0.95,-0.71,-3.16,0.24,764.00,24320.00,29786.00
754.00,0.000000,0.000000,75178.48,36.14,0.00,44.20,44.20,0.00,0.58,-0.14,0.66,-28.56,-50.18,-13.08,764.00,24320.00,29786.00
755.98,0.000000,0.000000,75178.41,36.14,0.00,44.21,44.21,0.00,-0.82,-0.09,0.48,-1.99,2.51,42.51,764.00,24320.00,29786.00
757.97,0.000000,0.000000,75177.67,36.15,0.00,44.29,44.29,0.00,-0.12,-0.00,0.86,1.93,30.61,71.20,764.00,24320.00,29786.00
759.98,0.000000,0.000000,75176.98,36.15,0.00,44.36,44.36,0.00,-0.04,0.12,1.03,-35.88,31.88,23.93,764.00,24320.00,29786.00
761.98,0.000000,0.000000,75176.64,36.16,0.00,44.39,44.39,0.00,0.11,0.11,1.09,0.86,-42.09,-140.08,764.00,24320.00,29786.00
763.98,0.000000,0.000000,75176.84,36.16,0.00,44.37,44.37,0.00,0.04,0.18,0.75,0.51,-5.95,-16.40,764.00,24320.00,29786.00
766.00,0.000000,0.000000,75175.58,36.18,0.00,44.51,44.51,0.00,0.08,0.13,0.90,-45.84,-82.30,-79.37,764.00,24320.00,29786.00
767.97,0.000000,0.000000,75176.05,36.18,0.00,44.46,44.46,0.00,0.10,0.08,0.93,9.97,-23.32,4.18,764.00,24320.00,29786.00
769.98,0.000000,0.000000,75177.00,36.19,0.00,44.36,44.36,0.00,0.14,0.08,1.02,-0.95,-1.67,-19.71,764.00,24320.00,29786.00
771.98,0.000000,0.000000,75177.35,36.20,0.00,44.32,44.32,0.00,0.02,0.07,0.85,12.34,-28.76,7.03,764.00,24320.00,29786.00
773.97,0.000000,0.000000,75177.95,36.20,0.00,44.26,44.26,0.00,-0.02,-0.00,1.04,-1.27,9.28,34.65,764.00,24320.00,29786.00
776.00,0.000000,0.000000,75179.05,36.22,0.00,44.14,44.14,0.00,-0.11,-0.21,0.94,-3.31,-15.63,-4.49,764.00,24320.00,29786.00
777.97,0.000000,0.000000,75178.95,36.23,0.00,44.15,44.15,0.00,0.04,-0.04,0.95,5.07,-1.27,-1.75,764.00,24320.00,29786.00
779.98,0.000000,0.000000,75178.55,36.24,0.00,44.19,44.19,0.00,0.05,-0.05,1.00,-14.24,9.67,-5.18,764.00,24320.00,29786.00
783.97,0.000000,0.000000,75177.14,36.25,0.00,44.34,44.34,0.00,0.01,0.09,0.97,-36.20,-5.30,-35.77,764.00,24320.00,29786.00
785.97,0.000000,0.000000,75176.80,36.26,0.00,44.38,44.38,0.00,0.06,0.04,0.98,0.94,-5.27,-60.26,764.00,24320.00,29786.00
787.97,0.000000,0.000000,75176.39,36.26,0.00,44.42,44.42,0.00,0.08,0.07,0.96,0.93,-2.60,12.90,764.00,24320.00,29786.00
789.97,0.000000,0.000000,75176.12,36.27,0.00,44.45,44.45,0.00,0.10,0.14,0.96,2.81,-4.42,-1.53,764.00,24320.00,29786.00
791.97,0.000000,0.000000,75176.62,36.28,0.00,44.40,44.40,0.00,0.10,0.11,0.94,0.72,-0.87,-3.14,764.00,24320.00,29786.00
793.97,0.000000,0.000000,75176.42,36.30,0.00,44.42,44.42,0.00,0.10,0.08,0.93,-4.75,-3.89,-1.43,764.00,24320.00,29786.00
795.97,0.000000,0.000000,75176.30,36.30,0.00,44.43,44.43,0.00,-0.04,0.00,0.90,-38.48,-2.25,40.94,764.00,24320.00,29786.00
797.97,0.000000,0.000000,75176.24,36.31,0.00,44.44,44.44,0.00,0.06,0.06,0.98,-12.09,-3.43,-39.58,764.00,24320.00,29786.00
799.97,0.000000,0.000000,75176.40,36.32,0.00,44.42,44.42,0.00,0.18,0.00,1.27,-21.88,49.96,12.63,764.00,24320.00,29786.00
801.98,0.000000,0.000000,75175.77,36.33,0.00,44.49,44.49,0.00,0.20,0.04,0.92,11.16,-32.57,-20.68,764.00,24320.00,29786.00
803.98,0.000000,0.000000,75175.88,36.33,0.00,44.47,44.47,0.00,0.14,0.02,1.00,-6.29,-8.90,-2.14,764.00,24320.00,29786.00
805.98,0.000000,0.000000,75175.59,36.33,0.00,44.51,44.51,0.00,0.18,0.10,0.97,-6.26,8.24,12.54,764.00,24320.00,29786.00
807.96,0.000000,0.000000,75175.74,36.34,0.00,44.49,44.49,0.00,0.11,0.11,0.95,-4.20,0.52,2.89,764.00,24320.00,29786.00
809.98,0.000000,0.000000,75175.65,36.35,0.00,44.50,44.50,0.00,0.13,0.08,0.95,0.83,-1.95,-1.43,764.00,24320.00,29786.00
811.96,0.000000,0.000000,75175.75,36.36,0.00,44.49,44.49,0.00,0.19,0.20,0.91,-2.53,3.81,0.59,764.00,24320.00,29786.00
813.98,0.000000,0.000000,75176.17,36.37,0.00,44.44,44.44,0.00,0.07,0.23,0.90,6.69,-8.36,-24.89,764.00,24320.00,29786.00
815.98,0.000000,0.000000,75176.65,36.37,0.00,44.39,44.39,0.00,0.00,0.17,0.86,-18.03,-5.95,-15.75,764.00,24320.00,29786.00
817.98,0.000000,0.000000,75176.98,36.38,0.00,44.36,44.36,0.00,0.27,0.02,1.00,15.45,21.58,50.30,764.00,24320.00,29786.00
819.96,0.000000,0.000000,75177.20,36.38,0.00,44.34,44.34,0.00,0.12,0.19,0.96,4.44,-1.17,7.35,764.00,24320.00,29786.00
821.97,0.000000,0.000000,75177.11,36.39,0.00,44.34,44.34,0.00,0.36,0.28,0.99,26.55,-38.83,-31.09,764.00,24320.00,29786.00
823.98,0.000000,0.000000,75176.58,36.39,0.00,44.40,44.40,0.00,0.17,0.00,0.99,-4.78,7.35,-7.33,764.00,24320.00,29786.00
825.96,0.000000,0.000000,75176.21,36.39,0.00,44.44,44.44,0.00,0.20,0.03,0.98,1.67,7.27,5.88,764.00,24320.00,29786.00
827.96,0.000000,0.000000,75176.00,36.40,0.00,44.46,44.46,0.00,0.17,0.10,0.98,4.77,-3.10,1.69,764.00,24320.00,29786.00
830.00,0.000000,0.000000,75175.09,36.41,0.00,44.56,44.56,0.00,0.17,-0.05,0.99,-18.88,-2.60,-40.09,764.00,24320.00,29786.00
832.00,0.000000,0.000000,75174.67,36.42,0.00,44.60,44.60,0.00,-0.53,-0.31,0.64,-103.29,-14.32,-12.09,764.00,24320.00,29786.00
834.00,0.000000,0.000000,75174.95,36.43,0.00,44.57,44.57,0.00,-0.05,0.46,0.08,154.81,-85.57,-214.71,764.00,24320.00,29786.00
835.99,0.000000,0.000000,75174.63,36.44,0.00,44.61,44.61,0.00,-0.12,0.81,0.42,-51.17,61.24,75.31,764.00,24320.00,29786.00
838.01,0.000000,0.000000,75174.51,36.45,0.00,44.62,44.62,0.00,-0.16,0.43,0.57,-15.41,-92.25,-110.80,764.00,24320.00,29786.00
843.99,0.000000,0.000000,75176.03,36.48,0.00,44.46,44.46,0.00,0.13,0.14,0.98,-26.28,-23.64,19.33,764.00,24320.00,29786.00
847.98,0.000000,0.000000,75176.88,36.48,0.00,44.37,44.37,0.00,-0.07,0.24,0.87,-9.82,-6.42,8.94,764.00,24320.00,29786.00
849.98,0.000000,0.000000,75177.15,36.49,0.00,44.34,44.34,0.00,0.05,0.09,0.94,-10.70,-6.58,-10.31,764.00,24320.00,29786.00
854.00,0.000000,0.000000,75178.39,36.51,0.00,44.21,44.21,0.00,-0.12,-0.06,0.89,16.60,-15.75,-9.44,764.00,24320.00,29786.00
856.00,0.000000,0.000000,75181.08,36.52,0.00,43.92,43.92,0.00,-0.26,-0.29,1.03,6.94,-13.33,-20.97,764.00,24320.00,29786.00
857.98,0.000000,0.000000,75183.17,36.52,0.00,43.70,43.70,0.00,-0.03,-0.27,0.89,19.13,-2.10,13.11,764.00,24320.00,29786.00
860.00,0.000000,0.000000,75184.05,36.53,0.00,43.61,43.61,0.00,0.06,-0.25,0.85,-21.67,12.85,-94.99,764.00,24320.00,29786.00
861.98,0.000000,0.000000,75185.68,36.53,0.00,43.44,43.44,0.00,-0.28,-0.39,0.67,8.73,-41.39,40.66,764.00,24320.00,29786.00
863.98,0.000000,0.000000,75185.23,36.54,0.00,43.48,43.48,0.00,-0.45,-0.80,0.38,0.38,74.11,12.43,764.00,24320.00,29786.00
865.98,0.000000,0.000000,75184.30,36.54,0.00,43.58,43.58,0.00,-0.56,-0.62,0.49,22.23,14.18,20.18,764.00,24320.00,29786.00
868.00,0.000000,0.000000,75183.83,36.55,0.00,43.63,43.63,0.00,-0.64,-0.36,0.65,15.94,-26.49,-0.94,764.00,24320.00,29786.00
872.00,0.000000,0.000000,75186.01,36.57,0.00,43.40,43.40,0.00,-0.36,-0.74,0.36,-32.44,-25.44,-16.91,764.00,24320.00,29786.00
873.97,0.000000,0.000000,75186.34,36.57,0.00,43.37,43.37,0.00,-0.10,-0.87,0.29,5.82,4.77,4.68,764.00,24320.00,29786.00
891.99,0.000000,0.000000,75184.52,36.56,0.00,43.56,43.56,0.00,0.50,-0.36,0.47,28.77,-47.74,-24.60,764.00,24320.00,29786.00
893.97,0.000000,0.000000,75184.12,36.58,0.00,43.60,43.60,0.00,0.00,0.10,0.89,-67.48,82.72,67.05,764.00,24320.00,29786.00
895.97,0.000000,0.000000,75183.79,36.60,0.00,43.64,43.64,0.00,-0.04,0.08,0.98,-73.40,2.20,-79.64,764.00,24320.00,29786.00
897.99,0.000000,0.000000,75182.40,36.61,0.00,43.78,43.78,0.00,-0.04,0.07,0.98,-59.78,15.21,1.11,764.00,24320.00,29786.00
901.99,0.000000,0.000000,75181.98,36.64,0.00,43.83,43.83,0.00,-0.03,0.10,0.98,25.41,-18.01,-1.90,764.00,24320.00,29786.00
903.98,0.000000,0.000000,75181.59,36.65,0.00,43.87,43.87,0.00,-0.03,0.07,0.95,18.59,-17.68,2.17,764.00,24320.00,29786.00
905.98,0.000000,0.000000,75181.42,36.67,0.00,43.89,43.89,0.00,-0.03,0.08,0.94,-19.92,0.06,-1.69,764.00,24320.00,29786.00
909.98,0.000000,0.000000,75181.98,36.71,0.00,43.83,43.83,0.00,-0.03,0.09,0.97,29.88,8.93,-2.04,764.00,24320.00,29786.00
911.98,0.000000,0.000000,75181.70,36.72,0.00,43.86,43.86,0.00,-0.04,0.07,0.97,-7.56,-9.44,1.04,764.00,24320.00,29786.00
913.98,0.000000,0.000000,75182.00,36.74,0.00,43.83,43.83,0.00,-0.04,0.09,0.96,-17.41,-19.10,6.07,764.00,24320.00,29786.00
915.98,0.000000,0.000000,75182.13,36.75,0.00,43.81,43.81,0.00,-0.03,0.09,0.96,16.43,-6.75,1.45,764.00,24320.00,29786.00
917.98,0.000000,0.000000,75181.92,36.78,0.00,43.83,43.83,0.00,-0.03,0.07,0.96,-7.10,2.01,1.79,764.00,24320.00,29786.00
919.96,0.000000,0.000000,75180.36,36.79,0.00,44.00,44.00,0.00,-0.04,0.09,0.95,3.36,3.92,1.30,764.00,24320.00,29786.00
921.97,0.000000,0.000000,75178.77,36.82,0.00,44.17,44.17,0.00,-0.03,0.10,0.95,-4.79,-0.24,2.54,764.00,24320.00,29786.00
923.98,0.000000,0.000000,75177.40,36.84,0.00,44.31,44.31,0.00,-0.04,0.09,0.96,-3.95,-6.35,0.00,764.00,24320.00,29786.00
925.98,0.000000,0.000000,75177.29,36.86,0.00,44.33,44.33,0.00,-0.04,0.09,0.96,-0.23,-9.38,1.26,764.00,24320.00,29786.00
927.98,0.000000,0.000000,75176.29,36.88,0.00,44.43,44.43,0.00,-0.03,0.08,0.95,1.97,-6.36,0.83,764.00,24320.00,29786.00
929.98,0.000000,0.000000,75176.37,36.90,0.00,44.42,44.42,0.00,-0.04,0.09,0.96,-3.57,0.60,-0.39,764.00,24320.00,29786.00
931.98,0.000000,0.000000,75176.73,36.92,0.00,44.38,44.38,0.00,-0.04,0.09,0.95,-3.59,-1.11,-0.54,764.00,24320.00,29786.00
933.98,0.000000,0.000000,75177.47,36.95,0.00,44.31,44.31,0.00,-0.04,0.09,0.96,-5.24,-4.22,0.14,764.00,24320.00,29786.00
935.98,0.000000,0.000000,75177.80,36.98,0.00,44.27,44.27,0.00,-0.04,0.08,0.96,-2.01,-3.40,0.50,764.00,24320.00,29786.00
937.98,0.000000,0.000000,75178.30,37.00,0.00,44.22,44.22,0.00,-0.03,0.09,0.97,2.01,-12.20,1.98,764.00,24320.00,29786.00
939.98,0.000000,0.000000,75178.45,37.03,0.00,44.20,44.20,0.00,-0.03,0.08,0.95,0.87,-12.62,1.63,764.00,24320.00,29786.00
941.98,0.000000,0.000000,75178.09,37.05,0.00,44.24,44.24,0.00,-0.03,0.08,0.95,-1.17,-3.60,0.45,764.00,24320.00,29786.00
943.98,0.000000,0.000000,75177.73,37.07,0.00,44.28,44.28,0.00,-0.04,0.08,0.95,-2.18,3.95,-0.67,764.00,24320.00,29786.00
945.98,0.000000,0.000000,75177.63,37.10,0.00,44.29,44.29,0.00,-0.04,0.09,0.97,-3.04,1.19,-0.50,764.00,24320.00,29786.00
947.98,0.000000,0.000000,75177.27,37.13,0.00,44.33,44.33,0.00,-0.05,0.07,0.95,8.91,-3.12,0.90,764.00,24320.00,29786.00
949.98,0.000000,0.000000,75177.64,37.15,0.00,44.29,44.29,0.00,-0.04,0.09,0.95,-15.62,-7.51,2.11,764.00,24320.00,29786.00
951.98,0.000000,0.000000,75178.04,37.18,0.00,44.25,44.25,0.00,-0.04,0.09,0.96,3.97,-15.95,2.20,764.00,24320.00,29786.00
955.98,0.000000,0.000000,75178.83,37.23,0.00,44.16,44.16,0.00,-0.04,0.09,0.96,-5.19,0.99,-0.41,764.00,24320.00,29786.00
957.98,0.000000,0.000000,75179.39,37.26,0.00,44.10,44.10,0.00,-0.03,0.09,0.96,-0.72,4.21,0.48,764.00,24320.00,29786.00
959.96,0.000000,0.000000,75178.76,37.28,0.00,44.17,44.17,0.00,-0.03,0.09,0.96,7.80,0.20,2.69,764.00,24320.00,29786.00
961.98,0.000000,0.000000,75179.12,37.29,0.00,44.13,44.13,0.00,-0.03,0.12,0.96,-16.85,-7.70,0.58,764.00,24320.00,29786.00
963.98,0.000000,0.000000,75178.69,37.31,0.00,44.18,44.18,0.00,-0.04,0.09,0.96,7.57,-4.45,-0.29,764.00,24320.00,29786.00
967.97,0.000000,0.000000,75177.52,37.34,0.00,44.30,44.30,0.00,-0.03,0.09,0.96,6.23,-1.70,0.52,764.00,24320.00,29786.00
969.98,0.000000,0.000000,75178.09,37.36,0.00,44.24,44.24,0.00,-0.03,0.10,0.96,-2.86,-4.01,-0.76,764.00,24320.00,29786.00
971.98,0.000000,0.000000,75177.70,37.37,0.00,44.28,44.28,0.00,-0.04,0.08,0.96,1.49,-4.71,0.08,764.00,24320.00,29786.00
973.98,0.000000,0.000000,75177.59,37.39,0.00,44.29,44.29,0.00,-0.04,0.09,0.96,4.04,-1.93,-0.12,764.00,24320.00,29786.00
975.98,0.000000,0.000000,75177.60,37.41,0.00,44.29,44.29,0.00,-0.05,0.08,0.95,-8.86,-1.82,-1.34,764.00,24320.00,29786.00
977.98,0.000000,0.000000,75177.35,37.42,0.00,44.32,44.32,0.00,-0.04,0.09,0.94,-1.83,-1.63,-2.38,764.00,24320.00,29786.00
979.98,0.000000,0.000000,75176.36,37.43,0.00,44.42,44.42,0.00,-0.04,0.07,0.95,-7.48,2.07,-2.03,764.00,24320.00,29786.00
981.98,0.000000,0.000000,75176.02,37.44,0.00,44.46,44.46,0.00,-0.03,0.08,0.96,-6.99,-0.66,3.73,764.00,24320.00,29786.00
983.98,0.000000,0.000000,75176.45,37.46,0.00,44.42,44.42,0.00,-0.04,0.09,0.95,0.30,-3.25,-2.70,764.00,24320.00,29786.00
985.98,0.000000,0.000000,75175.92,37.47,0.00,44.47,44.47,0.00,-0.04,0.09,0.95,-5.82,-4.86,-0.54,764.00,24320.00,29786.00
987.98,0.000000,0.000000,75176.17,37.48,0.00,44.44,44.44,0.00,-0.03,0.09,0.95,1.66,-3.81,4.90,764.00,24320.00,29786.00
989.98,0.000000,0.000000,75176.65,37.49,0.00,44.39,44.39,0.00,-0.04,0.10,0.96,3.65,-8.14,1.39,764.00,24320.00,29786.00
991.98,0.000000,0.000000,75177.02,37.49,0.00,44.35,44.35,0.00,-0.03,0.08,0.94,-0.79,-6.90,0.07,764.00,24320.00,29786.00
993.98,0.000000,0.000000,75176.70,37.51,0.00,44.39,44.39,0.00,-0.03,0.09,0.95,-7.77,2.40,1.75,764.00,24320.00,29786.00
995.98,0.000000,0.000000,75177.03,37.52,0.00,44.35,44.35,0.00,-0.04,0.08,0.96,-2.99,0.26,-0.32,764.00,24320.00,29786.00
997.98,0.000000,0.000000,75177.27,37.53,0.00,44.33,44.33,0.00,-0.03,0.08,0.96,-0.83,-2.44,0.29,764.00,24320.00,29786.00
999.97,0.000000,0.000000,75177.73,37.54,0.00,44.28,44.28,0.00,-0.03,0.09,0.96,-2.33,-5.58,0.56,764.00,24320.00,29786.00
1001.98,0.000000,0.000000,75178.22,37.55,0.00,44.23,44.23,0.00,-0.04,0.09,0.96,-2.40,-3.27,0.73,764.00,24320.00,29786.00
1003.98,0.000000,0.000000,75178.74,37.56,0.00,44.17,44.17,0.00,-0.04,0.08,0.95,1.10,0.18,-0.99,764.00,24320.00,29786.00
1005.98,0.000000,0.000000,75178.57,37.57,0.00,44.19,44.19,0.00,-0.04,0.08,0.96,-4.68,6.69,-1.03,764.00,24320.00,29786.00
1007.97,0.000000,0.000000,75178.02,37.59,0.00,44.25,44.25,0.00,-0.04,0.09,0.96,-4.07,-3.36,0.34,764.00,24320.00,29786.00
1009.98,0.000000,0.000000,75177.98,37.59,0.00,44.25,44.25,0.00,-0.04,0.08,0.96,-6.72,-1.45,0.46,764.00,24320.00,29786.00
1011.98,0.000000,0.000000,75177.84,37.61,0.00,44.27,44.27,0.00,-0.04,0.08,0.95,-2.55,0.24,-0.08,764.00,24320.00,29786.00
1013.98,0.000000,0.000000,75178.09,37.63,0.00,44.24,44.24,0.00,-0.03,0.09,0.96,-1.53,-0.66,-0.27,764.00,24320.00,29786.00
1015.98,0.000000,0.000000,75178.42,37.63,0.00,44.21,44.21,0.00,-0.04,0.09,0.96,-0.95,0.14,0.00,764.00,24320.00,29786.00
1017.98,0.000000,0.000000,75178.86,37.64,0.00,44.16,44.16,0.00,-0.03,0.09,0.95,0.12,-2.44,-0.04,764.00,24320.00,29786.00
1019.98,0.000000,0.000000,75178.63,37.64,0.00,44.18,44.18,0.00,-0.03,0.09,0.96,-0.19,-1.12,-0.01,764.00,24320.00,29786.00
1027.98,0.000000,0.000000,75174.10,37.68,0.00,44.66,44.66,0.00,-0.03,0.06,1.09,-11.00,7.66,-8.29,764.00,24320.00,29786.00
1029.98,0.000000,0.000000,75170.20,37.68,0.00,45.08,45.08,0.00,-0.05,0.08,1.00,-15.23,46.10,-6.04,764.00,24320.00,29786.00
1031.97,0.000000,0.000000,75166.95,37.69,0.00,45.42,45.42,0.00,-0.01,0.10,0.75,-12.86,40.28,-7.76,764.00,24320.00,29786.00
1033.98,0.000000,0.000000,75158.89,37.70,0.00,46.28,46.28,0.00,-0.10,0.05,1.17,-15.64,-6.25,-6.74,764.00,24320.00,29786.00
1035.98,0.000000,0.000000,75148.38,37.70,0.00,47.39,47.39,0.00,-0.09,0.05,0.72,-4.06,-42.51,-7.35,764.00,24320.00,29786.00
1037.98,0.000000,0.000000,75138.74,37.71,0.00,48.41,48.41,0.00,-0.04,0.05,1.13,-4.76,-48.89,0.03,764.00,24320.00,29786.00
1043.98,0.000000,0.000000,75121.56,37.73,0.00,50.24,50.24,0.00,0.01,0.08,1.13,16.82,-60.88,-82.58,764.00,24320.00,29786.00
1046.00,0.000000,0.000000,75110.60,37.74,0.00,51.40,51.40,0.00,-0.04,0.07,0.96,-20.14,-51.74,-14.96,764.00,24320.00,29786.00
1047.98,0.000000,0.000000,75083.95,37.74,0.00,54.23,54.23,0.00,-0.02,0.06,0.93,2.59,-36.67,-2.40,764.00,24320.00,29786.00
1049.98,0.000000,0.000000,75038.77,37.74,0.00,59.02,59.02,0.00,-0.02,0.07,0.90,-10.30,-9.38,9.89,764.00,24320.00,29786.00
1051.97,0.000000,0.000000,74977.34,37.73,0.00,65.55,65.55,0.00,-0.01,0.07,0.68,-6.58,21.20,-3.33,764.00,24320.00,29786.00
1053.98,0.000000,0.000000,74910.43,37.73,0.00,72.66,72.66,0.00,0.00,0.06,1.16,-15.25,-7.40,1.88,764.00,24320.00,29786.00
1055.97,0.000000,0.000000,74850.95,37.74,0.00,78.98,78.98,0.00,-0.01,0.08,0.77,30.85,-31.14,6.81,764.00,24320.00,29786.00
1057.97,0.000000,0.000000,74793.96,37.73,0.00,85.05,85.05,0.00,-0.03,0.05,1.00,26.19,-50.71,13.47,764.00,24320.00,29786.00
1059.98,0.000000,0.000000,74735.70,37.73,0.00,91.25,91.25,0.00,0.01,0.01,1.08,-10.87,-29.91,7.01,764.00,24320.00,29786.00
1061.97,0.000000,0.000000,74680.69,37.73,0.00,97.12,97.12,0.00,-0.03,0.04,1.06,-17.90,5.58,-23.87,764.00,24320.00,29786.00
1063.98,0.000000,0.000000,74628.60,37.73,0.00,102.67,102.67,0.00,-0.05,0.09,1.05,-3.72,-21.29,7.74,764.00,24320.00,29786.00
1065.98,0.000000,0.000000,74575.48,37.73,0.00,108.34,108.34,0.00,-0.01,0.09,0.99,-12.50,-6.81,0.11,764.00,24320.00,29786.00
1067.98,0.000000,0.000000,74520.74,37.72,0.00,114.18,114.18,0.00,-0.03,0.09,0.99,-3.73,-4.38,2.53,764.00,24320.00,29786.00
1069.97,0.000000,0.000000,74467.56,37.71,0.00,119.86,119.86,0.00,-0.00,0.04,0.68,7.21,13.63,-0.43,764.00,24320.00,29786.00
1071.98,0.000000,0.000000,74408.99,37.71,0.00,126.12,126.12,0.00,-0.03,0.09,1.00,-8.92,-9.45,-9.01,764.00,24320.00,29786.00
1073.97,0.000000,0.000000,74336.27,37.71,0.00,133.90,133.90,0.00,-0.02,0.08,0.73,9.61,-26.43,31.99,764.00,24320.00,29786.00
1075.97,0.000000,0.000000,74251.55,37.70,0.00,142.96,142.96,0.00,-0.02,0.14,1.28,-22.95,9.28,3.99,764.00,24320.00,29786.00
1077.97,0.000000,0.000000,74164.65,37.69,0.00,152.27,152.27,0.00,-0.05,0.09,0.93,3.76,37.24,-8.71,764.00,24320.00,29786.00
1079.99,0.000000,0.000000,74077.62,37.68,0.00,161.61,161.61,0.00,-0.03,0.06,0.88,-2.13,29.31,-21.92,764.00,24320.00,29786.00
1081.99,0.000000,0.000000,74001.66,37.68,0.00,169.76,169.76,0.00,-0.08,0.00,0.68,-26.76,9.22,-12.70,764.00,24320.00,29786.00
1083.99,0.000000,0.000000,73941.55,37.68,0.00,176.22,176.22,0.00,-0.16,-0.00,0.84,-48.87,-11.34,-3.97,764.00,24320.00,29786.00
1085.97,0.000000,0.000000,73898.13,37.67,0.00,180.88,180.88,0.00,-0.13,0.03,0.92,-7.42,10.10,1.91,764.00,24320.00,29786.00
1087.98,0.000000,0.000000,73874.97,37.68,0.00,183.37,183.37,0.00,-0.02,-0.07,0.68,4.27,-32.23,1.79,764.00,24320.00,29786.00
1089.97,0.000000,0.000000,73863.92,37.67,0.00,184.56,184.56,0.00,-0.03,0.13,0.84,-32.29,-7.00,1.74,764.00,24320.00,29786.00
1091.97,0.000000,0.000000,73843.37,37.66,0.00,186.77,186.77,0.00,0.06,-0.02,1.08,1.63,34.81,2.92,764.00,24320.00,29786.00
1093.97,0.000000,0.000000,73807.52,37.66,0.00,190.63,190.63,0.00,-0.12,0.06,1.01,-2.57,34.00,2.77,764.00,24320.00,29786.00
1098.02,0.000000,0.000000,73683.05,37.65,0.00,204.03,204.03,0.00,-0.01,0.08,0.80,-13.63,27.20,-19.02,764.00,24320.00,29786.00
1103.97,0.000000,0.000000,73429.17,37.61,0.00,231.43,231.43,0.00,0.02,0.12,0.91,-9.32,-30.75,-1.75,764.00,24320.00,29786.00
1105.97,0.000000,0.000000,73343.70,37.59,0.00,240.67,240.67,0.00,0.01,0.12,0.81,49.55,-42.68,-5.39,764.00,24320.00,29786.00
1107.96,0.000000,0.000000,73259.13,37.57,0.00,249.82,249.82,0.00,0.02,0.07,0.80,-0.09,-7.41,-11.31,764.00,24320.00,29786.00
1109.96,0.000000,0.000000,73181.06,37.55,0.00,258.27,258.27,0.00,0.03,0.14,1.07,18.38,-11.87,-5.56,764.00,24320.00,29786.00
1111.97,0.000000,0.000000,73119.09,37.53,0.00,264.99,264.99,0.00,0.01,0.12,0.91,37.28,-12.56,-1.13,764.00,24320.00,29786.00
1113.96,0.000000,0.000000,73075.67,37.52,0.00,269.70,269.70,0.00,0.00,0.18,1.29,15.80,-17.65,-3.76,764.00,24320.00,29786.00
1115.98,0.000000,0.000000,73049.45,37.50,0.00,272.55,272.55,0.00,-0.02,0.12,0.88,-30.23,-14.50,-0.48,764.00,24320.00,29786.00
1125.96,0.000000,0.000000,73030.31,37.40,0.00,274.62,274.62,0.00,0.02,0.14,0.94,9.00,58.70,-11.72,764.00,24320.00,29786.00
1127.96,0.000000,0.000000,73028.54,37.38,0.00,274.81,274.81,0.00,0.00,0.11,0.92,6.69,16.27,-2.07,764.00,24320.00,29786.00
1131.99,0.000000,0.000000,73031.45,37.35,0.00,274.50,274.50,0.00,-0.01,0.15,1.01,-17.49,-34.65,1.56,764.00,24320.00,29786.00
1135.98,0.000000,0.000000,73044.23,37.31,0.00,273.11,273.11,0.00,-0.01,0.17,1.19,-134.76,26.08,-50.58,764.00,24320.00,29786.00
1139.96,0.000000,0.000000,73036.92,37.27,0.00,273.91,273.91,0.00,-0.12,0.43,1.21,-28.37,37.29,0.70,764.00,24320.00,29786.00
1141.98,0.000000,0.000000,73030.91,37.26,0.00,274.56,274.56,0.00,-0.00,0.24,1.21,-128.58,-57.11,6.03,764.00,24320.00,29786.00
1143.96,0.000000,0.000000,73028.67,37.24,0.00,274.80,274.80,0.00,0.02,0.11,0.83,-5.75,-56.59,9.51,764.00,24320.00,29786.00
1145.97,0.000000,0.000000,73026.75,37.21,0.00,275.01,275.01,0.00,-0.03,0.07,0.65,1.17,-4.15,-13.18,764.00,24320.00,29786.00
1147.96,0.000000,0.000000,73030.48,37.19,0.00,274.60,274.60,0.00,0.04,0.15,1.19,-6.52,0.74,-0.95,764.00,24320.00,29786.00
1149.96,0.000000,0.000000,73043.62,37.16,0.00,273.18,273.18,0.00,0.01,0.14,0.98,-12.91,31.93,3.86,764.00,24320.00,29786.00
1151.98,0.000000,0.000000,73048.50,37.13,0.00,272.65,272.65,0.00,-0.03,0.10,0.81,-20.91,36.95,-8.09,764.00,24320.00,29786.00
1155.96,0.000000,0.000000,73047.45,37.10,0.00,272.76,272.76,0.00,-0.01,0.09,0.78,-7.74,0.87,1.40,764.00,24320.00,29786.00
1157.96,0.000000,0.000000,73047.34,37.07,0.00,272.77,272.77,0.00,0.00,0.15,1.31,-1.36,-8.90,1.70,764.00,24320.00,29786.00
1159.96,0.000000,0.000000,73047.02,37.04,0.00,272.81,272.81,0.00,-0.03,0.11,0.95,3.86,-34.00,2.84,764.00,24320.00,29786.00
1165.96,0.000000,0.000000,73046.45,36.98,0.00,272.87,272.87,0.00,0.01,0.15,1.17,-24.69,6.65,22.09,764.00,24320.00,29786.00
1167.96,0.000000,0.000000,73045.64,36.96,0.00,272.96,272.96,0.00,0.01,0.11,0.85,-24.94,18.73,4.27,764.00,24320.00,29786.00
1169.96,0.000000,0.000000,73044.97,36.93,0.00,273.03,273.03,0.00,-0.04,0.12,1.01,-3.35,17.28,-0.83,764.00,24320.00,29786.00
1171.97,0.000000,0.000000,73044.85,36.90,0.00,273.04,273.04,0.00,0.01,0.14,1.09,7.12,-10.90,2.79,764.00,24320.00,29786.00
1173.96,0.000000,0.000000,73045.30,36.87,0.00,273.00,273.00,0.00,0.01,0.11,0.84,1.41,0.97,-1.26,764.00,24320.00,29786.00
1175.96,0.000000,0.000000,73045.61,36.86,0.00,272.96,272.96,0.00,-0.05,0.10,0.72,-3.98,-8.68,-5.91,764.00,24320.00,29786.00
1177.96,0.000000,0.000000,73046.29,36.84,0.00,272.89,272.89,0.00,-0.01,0.13,1.02,-4.83,9.85,-1.11,764.00,24320.00,29786.00
1179.96,0.000000,0.000000,73046.95,36.81,0.00,272.82,272.82,0.00,0.03,0.15,1.12,-8.54,0.03,-1.88,764.00,24320.00,29786.00
1181.96,0.000000,0.000000,73046.73,36.79,0.00,272.84,272.84,0.00,0.00,0.10,0.81,-6.74,-6.72,2.33,764.00,24320.00,29786.00
1185.96,0.000000,0.000000,73046.82,36.74,0.00,272.83,272.83,0.00,-0.02,0.16,1.25,1.26,7.53,-1.47,764.00,24320.00,29786.00
1195.97,0.000000,0.000000,73404.18,36.64,0.00,234.13,234.13,0.00,0.21,0.05,0.78,9.32,-69.34,249.99,764.00,24320.00,29786.00
